timestamp,angular_velocity_x,angular_velocity_y,angular_velocity_z,linear_acceleration_x,linear_acceleration_y,linear_acceleration_z
0.0,-7.615220820001933,2.740959977553021,4.517155507930343,-495.70168426990494,130.52046464443202,2222.031438975334
0.007728099822998047,-4.952629827407703,-6.170722176083332,-6.885248086411537,-370.66543780326833,232.7921554040908,1512.668766942024
0.015583515167236328,-6.078671719092318,-4.706111137794777,-2.2360064775249087,268.39935845375055,-329.0081993865966,2159.5717679309837
0.023524045944213867,-2.356554747228212,0.5813049407240847,3.5222539933288184,-179.23124560832974,12.750994310379026,1937.4590612602228
0.03153109550476074,1.0503209335707728,-4.685746550391969,-1.3568615650024969,-385.63948576450343,66.36988867759703,1856.9914398384092
0.03986763954162598,-0.3949342894463846,-7.427084817494269,-6.501599435185283,128.02151666164397,-239.5772854995727,1715.989796285629
0.0475924015045166,5.737139304352364,2.008339217117678,2.0766204807623834,619.4884567451476,-24.43675592899322,2017.8658924055096
0.055830955505371094,6.623913056118552,0.5081689611969763,2.1336161061869574,-711.1237195825574,53.20645572185515,2103.9664343738555
0.06352972984313965,2.9647812942092573,-5.284705003415702,-7.4382443591979746,128.92775939941404,194.39701674938198,1207.5661099910733
0.0715782642364502,9.223203597466906,-0.7984431420097405,0.06796602235364024,221.86486938953396,-74.55506560325621,2341.2608111810678
0.07950401306152344,2.1290766315956193,0.48124735494001486,3.4256640617464655,-419.9757044172286,91.27987352848051,2099.5960811090467
0.08756446838378906,9.347408666146567,-6.0186497772735175,-3.774257881406277,-132.4610773181915,184.08418014526362,1674.3110474634166
0.09554266929626465,0.5994628390894355,-3.280905260889362,-0.97062793518951,477.5628009891509,37.69371238708495,2273.367424650192
0.10354280471801758,2.4850470974663548,-0.17331966182760394,2.251705493819952,-178.51766128540035,293.3345946502685,2119.2809078836435
0.11150264739990234,2.8622648263548798,-3.03299950959575,-1.012365882126532,-94.2782370138168,-15.091887574195859,2180.282547526359
0.11960959434509277,-4.1570869052757615,-2.5903376886821055,-0.7473110045989777,104.1814406776428,49.20177935123442,1893.056908049583
0.12738609313964844,2.990189742269106,1.1146932052062706,3.325480379445969,-9.343933119773864,274.91139992237083,2139.2893259763714
0.13549280166625977,-4.9922241335654824,-2.586491744931111,1.1343642617687342,-326.1042946386337,-17.73392651557922,2142.6253093051905
0.1434633731842041,-0.8241037831024414,-2.521741183746335,-1.9393644226326292,276.6406494808196,-48.48538932323455,1698.9236275768276
0.15172147750854492,0.027110751031600468,2.5340986423560876,4.171398859890117,169.66566178798672,89.65256458759306,2058.6477508401867
0.15949273109436035,-3.348303848919084,-1.4393286867451327,-0.9300248569003222,-539.4744243097304,5.960252804756163,1897.7171841716763
0.16846346855163574,3.962141690881089,-2.3817110022552077,-0.6959266741553628,314.11177593231196,-74.71218508720396,1594.517730493545
0.17557454109191895,-1.628095171834928,0.6441640541624699,4.894814574626358,-148.95394695758816,-19.511808295249935,1953.3066187334057
0.1836397647857666,3.4625472928010845,-2.6217987695304044,2.1057487760568003,-291.3855648612975,151.8167013645172,1911.2079493856427
0.1915292739868164,1.4197206784408822,-4.216856654061708,0.37450665378536463,96.75006318092343,-159.0834774971008,1846.0650890588756
0.2000422477722168,5.693572957927164,2.490847537221953,5.616464938132636,553.1279204177856,-97.77040459156035,2065.4637436914436
0.20752263069152832,3.2947758776962264,2.9898114527198274,5.112141920686653,-449.51229692935937,214.25486200332637,2084.4873593044276
0.21581172943115234,3.7893894633774026,-3.5249020201737657,-3.679307204537462,-180.78093004226682,-28.743513212203975,2017.0737483406062
0.2236011028289795,3.4680955395238304,1.5731170906731706,3.5916070773631454,396.2721727466582,117.93594216823574,1866.4288964605328
0.23149728775024414,2.0523469013503686,1.8548167083689635,6.491574762129415,-644.4330452919005,163.65958246707913,2238.4925106239316
0.23966574668884277,-0.5640297179737159,-7.1537706181408085,-3.443128429271473,-200.29554404258724,140.66776464939116,2012.0515362644192
0.24765253067016602,-1.9019768055123059,-4.426870402169292,2.0588408719463107,372.49382227420796,124.77251019001004,1996.7389332246776
0.2554504871368408,-4.597289844119098,0.9827332007664108,6.151303312553721,-16.901567344665523,182.00702315807337,2361.8995776796337
0.2633984088897705,-5.749244569929264,-3.45725123911119,0.2591283412555301,-411.32197474479665,293.1307134151458,1835.5782987403866
0.27153587341308594,-6.443405892854663,-3.174290656251137,-1.943777800707541,468.9558330678939,-240.18705873489372,2159.4333531475063
0.27950549125671387,-6.898929558443763,5.960393186684683,10.371753717333572,304.5555444622039,108.63222415447233,1827.0994580173488
0.2874770164489746,-4.760080446825126,1.9191889800044613,3.87835055571598,-743.4360896444318,116.30208658218382,1881.2561125230784
0.295640230178833,-7.486917614538429,-2.4636106896739265,-2.4068042090239916,363.886854352951,-126.52701109409328,1808.4331021833416
0.3035404682159424,-0.07294683475246917,5.696157936513899,6.812427348175494,399.52959633350366,-9.720832834243772,1801.391717691421
0.31164050102233887,-1.8567081561153542,5.144233484117083,5.898795038410558,-404.54993793964377,-33.01473156452178,1996.5584328651425
0.31969761848449707,0.041107464354891876,-3.7285478942018346,-5.003761964818465,-320.807123465538,18.701894764900203,1419.9570485925672
0.32744455337524414,4.445974024407838,-0.26959435211889216,0.3796135627006196,544.1852031230925,-96.83891050815579,1990.7019911479947
0.33551979064941406,1.232026013740709,5.851256651717939,7.695859542256391,-257.9696174716949,67.4715955352783,1915.656862392425
0.3435540199279785,8.490835030064416,-2.8407653703042386,-4.57566429155203,-503.11435706615435,78.18471272945403,1860.0608811855313
0.3515181541442871,1.504205344446335,-0.8137008204972924,-5.084274590556497,654.0510022735593,-70.17910092830657,2166.906816220283
0.35958075523376465,6.0049683052412925,8.086569598402503,2.935905191947692,3.937339448928832,118.38766068458554,2000.9587136507032
0.36742138862609863,6.419132313442647,3.4267358821360863,-3.9336438781688026,-501.0213010835647,109.82838974952695,2271.1612052297587
0.37572216987609863,1.3386406183789332,-0.7976865629111842,-7.896479099890236,111.27426309585569,118.9291617631912,1581.2963129663465
0.3835160732269287,8.065322335384716,6.332440958399739,1.3936817477989032,239.8297989559173,-88.71452385902403,2447.8860209751124
0.3915445804595947,0.7091668083800978,4.396607238227041,1.4381307698390853,-555.5146401977538,272.45079657554624,2028.3564236640927
0.39966416358947754,4.174929562350046,-0.6169902548726564,-4.471760762016965,184.26935667991634,243.32664270877834,1827.4688758516309
0.40780043601989746,-1.2070589034883512,1.237511212205242,-1.929024508285693,114.27917322635649,-58.197805042266836,2291.8523448896403
0.41565895080566406,-0.14873084112452445,3.3506996827311797,2.760189696307993,-83.27893790245054,266.4550048398971,2120.643545312881
0.4234957695007324,-0.7879140828881653,-0.3698410826776009,-0.7212090256987855,-436.22821865558615,134.99275852680205,1733.817246303558
0.43157291412353516,-4.247056769745747,-3.31923860188288,-2.3789999271520483,108.82488256931302,-170.16788299560542,1978.186676063537
0.43961477279663086,1.5858528388322015,0.1441913665331867,3.0993893254940645,-117.41782196521757,215.49311317443843,2006.9928500223155
0.4475514888763428,-2.90230047032015,-3.2594058048387193,0.26032625816157756,-397.45992122650136,22.43348250865936,1817.7676829528805
0.45542192459106445,1.4994136768221453,-4.346168631656621,-2.8946085828181607,137.8330672931671,-62.989949302673324,1774.04170466423
0.46350955963134766,-0.33573197498435464,1.0126180751593843,1.2189750242906128,160.0935313224792,202.1734959697723,2073.897693133354
0.4721801280975342,1.3085035509531073,-1.812889616657302,-1.3649947903119775,-476.8585690164565,88.09072209835051,1846.4625639438625
0.4795417785644531,0.882738663240554,-2.48807341386058,-3.1783257447767705,182.73370077133174,-29.602994198799127,1667.9037523174284
0.4876115322113037,2.5235695832345124,2.0594713545284407,2.5494193691018525,67.76525933265684,19.073183069229124,2093.091521520614
0.4955923557281494,2.174975763574701,0.09066339531032902,1.2030868632209306,-338.95348862648,197.0109986400604,1925.2383452081676
0.5035800933837891,1.6622042795281744,-4.013589069582918,-3.8484656813230065,-88.05144222736357,-45.70961177349089,1850.3045094203944
0.5115363597869873,4.238419158370562,1.1244026369710765,1.5363599561349774,553.5768332290648,-1.942483143806457,2175.2182498741145
0.5196664333343506,3.1086574194513785,1.9912531391419483,4.127895561723131,-424.4115241336822,211.08348003864282,2168.256360359191
0.5274665355682373,3.4085149355125224,-4.610151688794554,-5.319822883240355,-159.23872651100154,9.533785829544065,1935.55492275238
0.536128044128418,3.618906973169384,0.5830702919540492,2.4065520159911395,678.9497643041609,27.274258990287773,2023.1509055232996
0.5436618328094482,3.6583121345525247,3.7603242163411985,6.83543996242325,-395.5922568845748,67.23217536926268,2289.6938224554056
0.551494836807251,3.5744579511292027,-1.3384514736042943,-1.4904608241558956,-41.6235699558258,116.75754603862761,1879.733549904823
0.5595431327819824,2.1236544813892992,2.4405980754261725,2.0202553379199393,606.3231533193587,27.52116103649139,2189.4366279363626
0.5675487518310547,1.7410776505526677,7.159949347445685,7.613329372255542,-61.24293027877806,173.26164045333857,2077.271085863113
0.5756063461303711,-0.015825112811469113,1.5753237797106263,0.5714694124428528,-425.7835139131545,252.6537415981292,1908.3601587390895
0.5835258960723877,-1.6866670037148275,1.0707485692317926,1.4924153201604997,370.28666761875144,-35.40238657951354,1649.0073286676404
0.5915348529815674,-1.6272124962199457,4.5836083720868706,7.868296528469013,-192.42460608482355,180.34978669643397,1993.7218650388713
0.599747896194458,-2.898643671343794,-0.605452423619673,1.7637750235093563,-422.4138621234893,203.40707096576685,1835.019963431358
0.607729434967041,-3.07303515356102,-2.4649347030963997,0.43263714785777313,109.22796886444088,-105.57868180274961,1625.2018563795086
0.6157102584838867,-0.618755606102621,3.205121254517306,3.5632353611672847,284.5321626091003,-56.851066608428944,1938.7693255281445
0.6235225200653076,0.8290215472430573,5.570250564862489,5.8646228824591,-242.99369904041285,48.09165537834167,2024.7361288881298
0.631946325302124,-0.866913550429085,-0.42103626834657665,-5.6844940087444895,-314.691621646881,93.41688555717465,1624.9484076881404
0.6395647525787354,4.580014621368728,5.162832720289926,1.3296247174544709,568.3657046556472,-70.55974158287047,1993.9360338592523
0.6474590301513672,2.0124373539015243,8.264239590046806,6.214603763799597,-501.6376209640502,54.48679246902464,2224.04874092102
0.655555009841919,4.729628138108235,-0.7219025565391289,-4.6907273627908,-386.3502643823623,137.40753535747524,1812.7492118167875
0.663658857345581,2.4689697916220337,-0.22842383950578724,-1.998692833611085,384.76410578250875,-32.96703457832336,2076.6837582683556
0.6715295314788818,4.023613742638788,4.444902204018217,3.4720675797912515,-109.38321787834165,90.95534697532652,2298.3232360172265
0.6795563697814941,3.92128641955905,-0.8457293356695088,-2.7783475946733445,-514.9067354774473,300.2852613449096,1868.052464461326
0.687567949295044,-2.071324427072489,-3.2101651151743487,-5.008616680700867,243.87094949245446,44.62848008632659,1975.8289485692974
0.6955242156982422,1.7248742481919201,4.665823300796655,3.877846169650276,208.46295150279994,222.5251453161239,2075.0059466361995
0.7037277221679688,-4.566900583660419,1.087393309400031,1.1504415676130553,-696.3367186260222,160.2160471105575,2237.5946850013725
0.7114889621734619,-0.408931002769676,-3.5593894174162903,-6.407342289156813,113.0512096405029,-20.42085673809051,1594.7824020051953
0.7200753688812256,-3.400823048010534,1.9099208860471466,2.301009231742537,286.58126254558556,-2.5083003330230706,2343.395952739715
0.7276320457458496,-2.370299267518651,0.3808745278648801,2.1400470285246858,-587.948590812683,250.82535712718956,1836.243250842094
0.7355613708496094,0.03745066537853647,-6.320020451531775,-5.19441989765465,-164.8866108179092,-4.255319356918334,1744.4854722166056
0.7437033653259277,-3.031297206623998,-3.0024841526206463,0.2591283412555301,323.8831114578246,-147.05822556495662,2038.8413435125346
0.751535177230835,2.7188300389202493,-1.151954725810168,4.174740417575408,-403.18449480533593,279.8176428556441,1858.0763124656673
0.7600753307342529,-1.571477835959632,-7.443414316371443,-2.7803651389361614,-281.507612543106,-113.92097821235654,1828.5939635848995
0.7675135135650635,5.331675955784405,-5.77830981696547,-1.6352826732712127,323.1031254482268,-158.41478445529935,1715.0489498519894
0.7755708694458008,2.68881906801085,-0.4156141181402566,4.1165468752447865,-55.03577542781829,176.52748115539546,2191.500691633224
0.7834768295288086,5.3191293524000125,-5.8044117958656605,-3.221955139460184,-460.9464803266524,125.22796964645383,1761.9089007043835
0.791982889175415,3.971094543547339,-5.912854799992063,-3.989693779720181,328.69489565372464,1.1073182678222653,1813.1625856971737
0.7996799945831299,3.8400802629806745,0.7328729534681951,3.3621114174677373,49.74234519481658,58.173488931655875,2190.8993355131147
0.8078713417053223,3.3612917901109673,-3.253037930759205,-0.14721768292741186,-469.76200565814963,265.46365571498865,1959.5867219161983
0.8156797885894775,-0.21291396798538326,-4.99260242311476,-4.328956457164465,317.98084322452536,105.25041430950162,2000.9072757244107
0.8236386775970459,-0.03303728730362476,1.2083198686526118,3.2382215900791445,312.95021403312677,178.8627630090713,2155.8710429430002
0.8315982818603516,-2.8388739225578474,-1.7523632887727987,1.17055396198301,-501.2130242633819,275.17420096397393,2237.183181591033
0.83980393409729,-3.6096388792120706,-5.285587679030684,-3.685675078616978,106.49240642070768,12.515315084457395,1704.6500716257092
0.8474733829498291,-4.047509032501524,-0.9403017229890451,3.583347755537239,330.5419848251342,-7.715688943862913,2351.383795075416
0.8557202816009521,-4.203175182029481,-0.6067133887839333,4.328325974582335,-343.28830296039575,246.83283881187435,1903.316436257362
0.8635938167572021,-3.4403543059101,-5.598685329316563,-0.8334349253179689,-88.095398273468,-33.53846317768097,1816.4864109706875
0.8716044425964355,-3.7536411009706177,-1.7470041868246915,0.8222753836142636,471.93268614768976,-153.16437503337858,1968.4228224182125
0.8795578479766846,1.503764006638844,4.703210917916978,9.235939345625939,2.0238485908508297,29.97147679805755,2018.3662431430812
0.8875646591186523,-0.501927183633887,-2.637434737567235,-2.4714917219505548,-445.1082752037047,134.01169698715208,1695.185493187904
0.8955376148223877,1.3128538807698062,-1.4150551073331186,-0.3060992936242332,497.73675568103783,-103.52397045612332,1613.108332290649
0.9036397933959961,0.9025988645776566,4.553849594210324,7.652734533638683,-75.55202613830565,-76.89969980716702,2244.622040967941
0.9114713668823242,3.417656932953411,-0.10699289418750232,1.6575387084204105,-450.1800547361373,157.50293030738825,1774.252132544517
0.9195780754089355,-1.3747042220767831,-3.2042385789023236,-3.3302720470701597,203.77555356502526,62.206222352981555,1827.930881953239
0.9275240898132324,3.4475418073463846,4.729438993333596,3.3648224925708967,479.2770867872237,2.0294600009918207,2201.135482845306
0.9379510879516602,-0.10598412205609395,3.234564791102789,2.2559927753784375,-584.5031849861144,213.01193465709682,2245.3318843507764
0.9433887004852295,0.0986074758451701,-2.814159005338342,-6.853408716013961,-96.41805474758146,47.547348594665515,1699.5801625633235
0.9515769481658936,-0.3064145349152984,2.8468810513509015,2.6496660996605614,452.7734614562987,4.319850573539733,2402.111877985
0.9595499038696289,-3.3477364145951674,2.809052096423087,4.016741482493568,-619.1311969661712,209.9686798906326,1998.0379746723172
0.9676492214202881,0.2052220804833943,-3.23147542645035,-2.0662805664154473,-24.304887790679924,33.202713804244986,1999.2846429586407
0.975630521774292,-5.205831632391208,0.7452304120779478,2.011491630028329,384.97640413284296,-49.84148010730742,2045.1036772298808
0.9837384223937988,-0.6418312686085881,4.304367636461385,6.275445332975165,-121.82558463096615,201.41969654083246,2132.2049206733695
0.9915516376495361,-5.469625544754503,-1.9638901950774956,1.138840688101859,-479.69887778282157,240.71827222824092,1763.0564340782162
0.9998607635498047,-4.390050219372886,-2.9086052961414524,0.3545834041900489,285.03251334667203,-109.97148070812223,1625.4122842597958
1.0077974796295166,-4.063018904021928,2.4095152841271523,10.633593133692262,-69.94809787750243,76.48819639682768,2152.165641779899
1.0157523155212402,-4.60819719278995,-2.8697045208240173,3.6172677184558464,-521.6703551673888,111.94856754779813,1659.3276471519466
1.0235865116119385,-2.469537225945951,-4.051418024510732,0.26190246461690314,320.31331937313075,-151.3013868665695,1852.22267645359
1.0314912796020508,-1.2490490434582253,3.919521068329085,6.747109352666802,346.73183831691733,-61.90975285053252,2046.7683955717084
1.0405123233795166,2.493054226259409,4.083005201875458,4.737383073868437,-350.70284622669215,14.480243868827817,2030.8796877574914
1.048025131225586,-0.8917545641650164,-2.649035617078431,-4.4655820327120885,-284.04396992683405,130.66729654312132,1622.355000967979
1.0555598735809326,4.4278791743007,2.1338052509615966,1.0216970243420596,439.8251325559615,-103.72504598617552,2125.2308731031417
1.0634243488311768,4.180036471265302,5.31219404399658,5.571700674801388,-473.1812249040603,119.22563126564023,2243.31738811016
1.0715224742889404,2.2227663433001736,-5.20589468064942,-7.088011284824623,-336.5845383119582,239.61937107563014,1756.2236069965359
1.081186056137085,2.697393631127821,-1.9223413929151125,-4.1603023664446255,585.097059226036,-117.42156290531156,2061.6227334499354
1.087507724761963,1.2509404912046163,3.838441008267136,1.1020835535636657,-42.426936841011035,145.70119954586025,2374.6692766904825
1.0955581665039062,3.965924586373871,-0.3770285841138857,-3.7927940693209057,-429.22798450469963,258.22493663310996,1724.9278374052044
1.1035757064819336,-2.658555904068598,-2.267971944438912,-6.818416932705732,289.6161001968383,-62.20154617786406,1948.451813726425
1.1117057800292969,3.3856914660394075,4.209038670043293,2.065776180349743,183.54829047679897,114.85434276580808,1950.9629197645183
1.119659185409546,-1.0997507680097838,1.055995276809945,0.49240689664372017,-544.2918199157714,201.77508584976192,2058.515882701873
1.1274912357330322,-2.18953991122191,-2.4325278983749063,-5.196374393659255,167.79332127094264,77.56745761394498,1738.0201924991602
1.1357409954071045,-0.2479687995518248,1.3115929156055457,0.6570889470961399,185.25977056980128,139.13397921085354,2140.7810258388517
1.1435987949371338,-5.352923218802194,0.7019793069438132,2.2741506737437884,-372.50504509448996,195.43980380058284,2269.208434500694
1.1516578197479248,-1.488191086860227,-4.261494820876529,-4.201094589508451,-192.98761756896968,87.3369226694107,1565.599328331947
1.1594820022583008,-4.334946041694702,-1.8132048579483675,-1.121124127543999,254.2146488523483,-57.49450830459593,2153.11490532875
1.1674761772155762,-2.034567292534296,1.1347425513180123,3.5500582752007626,-251.42671324729915,250.17162784576414,1866.3868108844752
1.1756908893585205,-2.33984695880176,-2.569342618697169,-2.812708895399443,-190.3652185630798,-51.469724283218376,1888.0253436231608
1.183544635772705,-0.47450119131122126,-0.763388310443299,-2.98672208806739,264.77625797271725,-95.82418050765989,1823.2238440799708
1.1914806365966797,0.4147314425252742,4.025694335159818,1.3115298673473326,63.554831256866436,170.54945888519282,2072.403187565803
1.199777364730835,2.468528453814543,-2.790578956766671,-5.024630938286975,-649.1279251098632,18.92073976039886,1875.6390909719462
1.2079367637634277,0.28056474904795836,-3.5445100284780167,-4.737698315159502,393.49733043193805,-18.29506752967834,1671.1013208627696
1.2159531116485596,5.259359603614065,1.3117190121219717,3.5960204554380573,-61.81903505325316,-18.20622020244598,2272.712760133743
1.2235243320465088,1.7086077975729599,-3.6278598258356345,-1.0366394615385466,-345.0437390995025,168.42647538185116,1835.6213195514674
1.2316527366638184,3.8303077829576555,-4.697284381644954,-2.091752062733509,200.53496420860287,-14.023849177360532,1934.4055189085004
1.2395668029785156,2.8703980516643597,2.7383749989662864,5.585193002058975,518.1323610734938,18.93289781570434,2222.1661128187175
1.2475802898406982,4.40284901579013,2.4190986193755313,7.027421908681907,-494.87587174415575,228.39280985355373,2086.2446659135812
1.255491018295288,1.1660144873916725,-3.5871306510300207,-1.962377036880383,-12.772504715919492,-15.520225214958186,1831.817718710899
1.263535976409912,3.477426681739358,2.5021331754420846,7.276903866430846,555.8372962808608,48.96610012531279,2001.7751738262173
1.271578073501587,2.0386023810599294,4.493008025034754,11.26420181233893,-441.12323876857744,191.08815523624418,2238.598192181587
1.2795336246490479,0.1516941092605366,-1.72903543323398,2.7180104115634798,3.0488661766052236,101.83400076866148,1775.6409565544125
1.287658929824829,1.8684981804011898,0.452875638744154,3.3038548268789016,312.52935827255243,-121.0250234508514,2239.931837325096
1.2955687046051025,-1.8395590298814117,6.034853179634265,9.199434404120597,55.75684163093566,216.80618314743035,2169.6479900741574
1.3039052486419678,0.05579770851852655,1.0335500968861082,1.6310584399709402,-542.313797841072,273.9948695993423,1654.3905414628978
1.3115653991699219,-4.917070609775557,-0.10081416488262593,-0.5504743424579157,328.43770602226255,-87.2733266878128,2013.9799908828732
1.3196358680725098,-3.2442111746093807,6.393408624091735,7.594604039566275,61.66191556930541,166.36615262508388,1775.5717491626735
1.327465295791626,-2.8476376304494586,3.595516069372353,2.138975208135064,-432.6443980455398,56.28805512428282,2007.351980271339
1.3359863758087158,-6.546931132840449,1.7516067096742427,-1.389961900564335,216.8594915437698,-44.88379924774169,1513.4272425460813
1.3435730934143066,2.709183655413657,7.205785431166554,2.9971250506725386,307.67455326557155,-84.60416593074797,2094.901201291084
1.3515748977661133,-2.813465474497999,6.880519467045561,4.151349513778376,-384.3638251924514,-13.606734356880185,1965.506759614944
1.3595519065856934,4.492377542452624,0.4747533843440734,-4.725403904807963,-300.82863289356226,-27.41734994888305,1397.3290371990201
1.3675925731658936,3.3080160119209623,3.2813465986968526,1.2295671316704009,375.9897307920455,-173.83774522781368,2328.1001839303967
1.3756489753723145,5.494403510232221,3.512733706338652,3.868830268725813,-572.0439840030668,182.05378490924832,1866.2988987922663
1.3835477828979492,7.213540366926755,-3.1169167412772847,-2.995548844217214,-170.88988443374632,43.40238697052001,2043.3108316898342
1.3917922973632812,2.1973578952403248,-0.7026097895259434,-0.8213296597410683,256.62755521297447,-12.864157748222349,2077.3318761396404
1.39988374710083,8.196904050275295,3.911450891277818,3.354230385191109,-46.743046474456776,150.34090049743648,2412.1525611972806
1.40771484375,2.266647931016439,-0.08763707891610385,-1.100066009300849,-436.33670591831196,305.0886284255981,1859.126581397056
1.4157094955444336,-0.4306196035949564,-2.4839122288185203,-5.238868919694832,105.52724387645719,116.71826616764066,1872.1506643342966
1.4235410690307617,1.0136898955490055,2.9596113370357897,4.367037605125132,48.40776481628417,215.6998001146316,2226.9012077426905
1.4316763877868652,-4.492944976776542,-1.0088982279248158,0.9247918514686412,-614.8758776092528,261.56185519695276,1753.7620684146877
1.439631462097168,-2.3934379782828303,-6.109943655165977,-6.164795639811309,-1.8293197059631343,17.098901934623715,1755.5885824155803
1.4475023746490479,-6.287865839843132,-1.594490450207386,0.16487119522705868,195.82699110031123,-2.3240590333938598,2323.3529309511177
1.4554297924041748,-2.0276950323890763,-1.7985776620429457,-0.23397208622853338,-417.6553863239287,214.21090595722194,2007.0657983541485
1.4637813568115234,-4.750938449384237,-6.460302826055754,-6.221728216977668,-164.28993087291713,-20.947394056320185,1743.882245626449
1.4717059135437012,-0.2876261539678171,-3.6283642119013386,-3.7740687366316377,223.03484840393062,-183.49217637538905,2113.041955041885
1.479539394378662,0.47954505196826325,-0.7384212001909414,0.3182045592011339,-251.31167933940884,181.38135092735286,2067.0723479318617
1.4877700805664062,1.297848395315106,-5.770870122496332,-4.3498254306329756,-283.441678571701,-15.783961491584776,1624.8857469415661
1.4956903457641602,5.630209458423075,-3.9804887340210793,-3.80956490600557,427.7288027620315,-188.47884952068324,2042.9189682149884
1.5036234855651855,4.543320535088748,-0.5371081117167544,1.2042847801269783,-159.4500896263122,91.5342574548721,2017.136409087181
1.5115447044372559,9.793222899970859,-5.384636492683345,-3.5756558680352497,-276.2095061349868,116.71452522754666,1703.3622529983516
1.5195848941802979,2.330389720069806,-4.913918196864905,-2.1844960505648676,250.0285368871688,99.00210911750791,1671.0143440055845
1.5277104377746582,8.653184294962953,-1.9345097067502262,2.5893919648089105,-19.77741504192352,92.243165602684,2091.3772357225416
1.5355286598205566,2.7903267637338187,-5.447621702638156,0.2886979743574385,-337.5066800451278,261.8003401279449,1929.5469729614254
1.5453095436096191,1.8353347965811388,-6.395363120096339,-2.9427144038346986,243.88591325283045,157.08300978183743,1802.8460081529613
1.5514919757843018,1.9428320768343457,-1.485732204789919,4.751442835449941,288.2805845832824,104.1767645025253,2380.2778811264034
1.560715675354004,-1.5427278302144931,-3.1506475594212526,2.5901485439074667,-365.449632077217,264.2590730047225,2172.8923203706736
1.5674982070922852,-1.5262722348208937,-4.91379210034848,-1.5982102974419543,199.13959355354305,133.3570324707031,1669.2925763273236
1.5755531787872314,-3.382412956612331,-0.2073657212626371,5.311122223606959,278.6588866615295,-19.082535419464108,2348.0646459770196
1.5835440158843994,-3.1180516099251196,0.7127605590982404,5.257342059351249,-261.80969247817984,223.12837190628045,1983.4370854854578
1.591907262802124,-3.158591639956094,-2.6294276087741806,0.22300168929946712,-4.445172066688537,25.1512754869461,1864.175915288925
1.5997533798217773,-2.212300332436812,1.1139366261077144,2.2762312662648183,376.5966983222961,-188.322665271759,2053.387989068031
1.607630729675293,0.15440518436369663,3.8582381613460255,4.6032794286493335,-108.57236911296842,155.69512100696562,2066.7365985584256
1.6157150268554688,-0.3270943636091703,-1.3730019191050316,-1.8584735073453191,-326.855288362503,51.66518840312956,1766.600039582252
1.624631404876709,1.4839668535599544,-0.8682375638515584,0.1659430156166801,309.56746895313256,-139.31915574550627,1614.4653583097454
1.6317510604858398,0.9967299140897021,2.2619193116504617,4.486640150955239,-161.17466300964352,48.11223054885863,2145.3094338226315
1.6396808624267578,4.09391255054631,-1.4528210140027205,0.8405593784960407,-277.675019416809,157.75450852870938,1702.151123642921
1.6476528644561768,-0.09047425053568997,-0.9022205750283785,-0.35496169373932707,387.5267900419234,-74.91700155735015,1854.606590528488
1.6556727886199951,4.764935162707529,5.373792192270705,4.18520642843877,260.7051799154281,30.25298254013061,2050.6468152141565
1.6635332107543945,2.1819741202363465,3.9854695464199086,2.394320653897813,-277.01380825519556,183.26397902965542,2128.950302791595
1.6716537475585938,0.16739312555557967,-0.5037555831220646,-2.4485421559610137,-171.93360671997067,79.32102328300475,1780.2151910543437
1.67960524559021,1.3467107954302004,3.4511986063227402,3.985028208612417,234.62708652019495,150.93196903228755,2149.7798572349543
1.6876871585845947,-2.709877186254,0.9736542515837351,5.288929236715974,-613.3561206960677,181.17934016227719,2349.138295783996
1.6958067417144775,-2.951667256500948,-2.075611708630975,-0.7072123123754943,226.61118713378903,141.6591137742996,1835.3744175052639
1.703547477722168,-5.18880860267369,0.805504546929599,2.514049296244346,133.94716577053066,18.625205492973326,2338.923658857345
1.7116665840148926,-5.1762619992893,1.8504663785522648,2.3977883080995293,-103.87655405998228,159.00678822517392,2117.367417025566
1.7197494506835938,-5.303745577396034,0.2810691351136626,2.656916649355059,-226.98060496807094,87.47814315795895,1895.1892439031596
1.7275500297546387,-7.050938908995366,-1.1757239191564781,0.5772068039402379,13.317746734619138,-19.17138274669647,1643.712963199615
1.7354943752288818,-4.399822699395904,1.0837365104236756,5.881393719143763,-87.79986400604247,96.49100307941434,2020.5705920934674
1.7437148094177246,-5.076267461763442,-1.9383556505012207,1.2315216276750047,-342.20155986309044,3.3659108495712275,1757.7106306838984
1.751779556274414,-2.7660531843218044,-1.6241231315675075,3.1976815600481694,248.85107599258419,-94.95254146575925,1724.7828759765623
1.7596871852874756,-0.5089255402955326,2.744868969562228,5.425491764005385,65.79752484321592,-33.195231924057,1987.5670833492275
1.7679626941680908,0.8083417185491852,0.27993426646582814,2.2124894772114505,-269.1774739933013,70.851534910202,2060.426567854881
1.775744915008545,0.1822094662356404,-1.830038742891245,-1.807278321676343,-39.79612071990966,73.37292853355406,1496.4349574041362
1.7836840152740479,4.108791939484584,2.603073436841137,4.37283804488073,250.80104101657864,-137.1980427122116,2204.3321161556237
1.7915959358215332,2.682009856123843,1.599597359122641,3.1496387872898444,-498.84126824378956,233.60113369941706,1881.4440947628018
1.7999937534332275,2.8880515639640065,-2.4378870003230126,-2.890447397776102,129.81062126159665,90.76175332546232,1982.9666622686382
1.810420274734497,2.1067575481882086,1.8656610087816037,3.06490192825154,354.8655773162841,7.261164722442626,1979.8401715850825
1.8157892227172852,2.66839143234983,3.5153817331835993,2.731187497530002,-184.25626338958736,129.61796284675594,2424.683775277137
1.823758602142334,1.88142307333486,-1.6949263255407339,-2.0500141157964866,-367.8877897834777,168.29086630344386,1806.287673039436
1.831552267074585,-1.5858528388322015,-0.7274508032618751,-0.4043915281783382,380.24224444389336,-42.4521881866455,2187.306162552833
1.8396196365356445,2.329822285745889,3.4459025526328464,5.943496253483593,-169.8742191982269,209.6366714572906,2119.3763018560408
1.8477771282196045,-2.2535969415663426,-2.5505542377496875,-0.4976399020754012,-438.3502669239043,221.85645227432246,1977.5366877222057
1.8556349277496338,-1.9283309774453499,-3.029721000168673,-1.558111605218471,403.760599579811,-130.6850660085678,1870.0716368770595
1.8634679317474365,-0.4079852788964806,3.1671031548148525,7.236994318982,54.55038845062254,77.59832036972044,2169.9762575674054
1.871525526046753,-2.7393207228394827,-2.2901649313298966,1.9352662858487826,-606.3736560106277,245.3897711706161,2000.9830297613141
1.879786491394043,-0.7991366728500836,-6.495988140204325,-1.5865463696725448,61.54875213146208,-10.989946761131284,1567.6680682039257
1.8875818252563477,-3.805403720963511,0.055167225936396315,9.511271089242216,324.2356950616836,3.2433950614929192,2261.3851935291286
1.8958477973937988,-0.3567900932275049,-1.718632470628831,9.259960732005101,-623.2237854290007,300.7266922760009,1715.7971378707882
1.9035675525665283,-4.307772242404889,-6.171604851698315,3.490036333381963,88.79401883602141,-87.3874253606796,1817.8088332939144
1.911719799041748,0.8944656392681766,-1.1233308165814548,8.53925609237202,396.57986506938926,-54.16787732601164,1912.6650455522533
1.9195926189422607,-0.8268779064638143,2.873676561091437,13.780773038911798,-166.6813268280029,180.16835110187526,2122.6281140327446
1.9275801181793213,1.6382459414072248,-4.680009158894585,5.904910719457223,-408.2356991672515,109.21019939899443,1694.3409759616848
1.9357261657714844,1.4095699088685856,-1.6718506630347667,8.447710021446708,496.17117225170125,-32.338556642532346,1719.2874349784847
1.9436283111572266,3.3105379422494825,4.465203743162811,16.662961114861993,-67.56324856758117,74.45593069076537,2184.4957813072197
1.9520890712738037,4.4696171212377225,-1.3104580469577114,8.521602580072372,-462.46343153476704,271.4182971096038,1659.5455569124217
1.9595308303833008,1.3788023588606295,-0.20188052279810395,8.804878404223489,635.9130542278289,85.57400465011594,1875.555855054855
1.9674830436706543,4.198635707438144,7.1319559207991015,15.590384146142025,96.81085345745085,-0.6022913551330565,2159.5465165853493
1.9757390022277832,6.058748469497002,3.8229311367467314,11.970153159550167,-368.7416593599319,194.17443081378931,2325.635839643478
1.9835827350616455,2.8739287541242895,-2.3524566104443645,6.075014920115962,-210.8337722873687,203.45383271694178,1521.3112737941738
1.9915094375610352,7.561629800520863,3.360850452303476,13.819484669454596,374.46529770374286,48.28992520332336,2512.2582476425164
1.9998950958251953,1.6319411155859225,3.0780790142180625,18.22599048422108,-490.78702422142015,331.6717487335205,2161.2318100976936
2.0077431201934814,4.886744397575091,-1.5775935170062954,11.107779083712419,112.07762998104093,300.92776780605305,1784.4639637660978
2.015829563140869,0.07206415913748686,4.604477345555382,19.221774674437587,584.9156236314772,65.02408547878264,2344.5369394683835
2.0236122608184814,0.432258858308495,8.797690902787204,23.20358742188114,-171.397717051506,272.04490457534786,2099.4165159845347
2.031658887863159,0.5370450634585414,4.969022374543088,22.404829038580335,-112.82768846988675,199.97382319450375,1948.6669177818294
2.039715051651001,-7.664776750957371,4.573709795547425,22.148663965460816,41.75824379920959,196.295543847084,1629.4450176811215
2.0475013256073,-4.2153434958645954,5.074186869242414,30.98853415299254,-174.06500733852383,375.5511055660247,1916.4630349826807
2.055797815322876,-9.921147815885085,-0.23283721758069895,31.0914919586544,-405.24294709205617,-178.58499820709224,2015.5296753168104
2.063720464706421,-6.254828552539507,-2.912892577699939,30.26795560987588,0.5639467191696166,-11.076923618316648,1572.5462540864942
2.0715906620025635,-8.558801052418055,-2.229386410412541,32.79858659803025,-90.28665393352507,150.69816027641292,2187.904712967872
2.0795669555664062,-5.499825660438541,-0.3122149746708966,35.3765668281026,52.24316364765166,-324.9764012002944,2042.7758772563932
2.087665319442749,-3.494260566682236,0.7249919211915671,29.108561189596575,-145.37667299270626,-83.75684299945829,2012.902600135803
2.0956451892852783,-6.066944743064695,1.7616944309883265,29.048097909970284,-139.4267077732086,90.85247112274168,1766.2689663839337
2.1036720275878906,1.6407048234775325,4.129723961211308,28.822511242084087,22.417583513259885,-458.1548037815093,2110.875015492439
2.1115493774414062,1.7988298550757977,5.794134929776939,27.71292494579307,-263.5941209030151,-29.072715940475458,1919.7204585695263
2.1196625232696533,-0.17577854389791192,-0.23580048571671108,19.705859200997185,-473.32712156772607,202.41946278095241,1511.8270554208752
2.127492904663086,5.011075562771175,-1.871902786344693,18.318293134244946,197.40753829002375,-392.27123731613153,2059.210762324333
2.13594388961792,-0.6206470538490116,3.2392303622105527,24.468083288601555,-21.992051577568052,-65.54407615184782,2226.534595613479
2.1436431407928467,5.2845789068992755,-0.5787199621373506,17.49053255216615,-678.1912887001035,330.75241270542136,1578.4167243289944
2.151611804962158,-0.24380761450976515,-3.825894404882744,10.140870995757476,74.89455591678617,-243.83728103160854,2207.7737810420986
2.1596109867095947,0.6432813785474875,3.1335614814455237,16.67393151179106,154.6663624811172,-58.50269165992736,1963.1668015861508
2.1675262451171875,4.111376918071318,2.0384762845435036,16.564227542500397,-667.8148561143875,269.37106764316553,2234.987249755859
2.1756834983825684,-4.510220199526911,-3.491738636353715,7.2842174643835556,-139.35562991142268,-34.2819750213623,1695.5577167272563
2.1834728717803955,4.685746550391969,-0.7733499352409569,12.016241436303886,129.37106080055233,-115.88777746677397,2351.4436501169203
2.191720724105835,-2.9233585885633,0.17338271008581696,13.672456131301823,-334.5999695920944,158.9385160684585,2200.810956292152
2.199857711791992,5.094803649678072,-4.591237211330647,7.736651765320218,-361.324310388565,5.591770205497741,1537.6573115348813
2.2076704502105713,1.63919166528042,-5.673523611815423,5.056218115651702,82.45312537670134,-125.05214546203611,1985.001733679771
2.2157161235809326,2.873865705866076,-1.2962721888597806,11.943105456776776,40.532150683403,94.14917458057403,1640.723952064514
2.2235090732574463,8.259447922422616,-6.049858665088964,5.643890930455301,-696.8595150041579,-10.096797313690182,2010.0164648532864
2.2317490577697754,1.2660720731757422,-7.8316654904472465,1.3680841549644154,375.14614880084986,170.46622296810145,1368.684658899307
2.241513252258301,8.763644843352173,-2.5845372489265075,7.862054750905925,-15.460370173454281,57.5169539451599,2228.8146986007687
2.247507333755493,2.790200667217393,-4.441560646332927,5.792937012870891,-281.97242434978483,81.32803764343261,2208.9643352270123
2.2554993629455566,5.591119538330999,-5.970480907998766,1.8390546438157076,55.44260266304015,387.2031987237929,1326.2203126573559
2.2636849880218506,1.186000785245201,-1.1506937606459078,5.919033529296939,274.50831362724296,56.88473506927489,2420.748306298255
2.271498203277588,0.09450933906132351,-0.38951213924006445,8.014757632297869,-215.47627894401543,155.48095218658446,2062.3138721323007
2.279482364654541,0.9245396584357891,-2.9944770238275913,3.9917743722412116,16.594810256958006,356.22166810035696,1931.4071554231639
2.287551164627075,-9.28625185567993,1.3984103671648802,7.899379319768035,366.7337097644805,304.0551937246322,1981.1364073276516
2.295610189437866,-3.0918235345085017,0.6559540784483053,8.892263290106742,-280.87539366722103,127.36685214519497,2385.181318354606
2.303880214691162,-9.5034531052238,-1.8322454319287007,6.508913033137994,88.45920469760893,109.30465813636778,2027.773772244453
2.3115429878234863,-6.244740831225424,-0.4293586384306959,7.512767400405769,94.12111752986905,162.36334672451017,1541.5796872234341
2.319617986679077,-8.719258869570202,-0.2519408398192453,9.212296248796054,-12.689268798828122,-44.21791191101073,2563.6409950685497
2.3276398181915283,-4.8511221316847335,-1.8085392868406036,7.251873707920274,-97.0923591995239,114.36989102363584,1671.57454978466
2.335695505142212,-4.562676350360146,1.1044163391175477,8.149113470549823,278.8478041362762,-79.08253835201262,2011.1742858123773
2.3436474800109863,-5.165669891909511,2.524200065816643,8.760114140892243,-44.922143883705125,45.61608827114104,1849.4815025997157
2.35166072845459,2.617196246680854,0.9209459077176467,4.876971917552074,-110.01169581413266,-204.03648413658138,2273.286994438171
2.359778881072998,1.3811981926727246,3.277311510171219,6.596865353345164,153.41034184455867,11.737199544906613,1511.4426738262173
2.3676087856292725,4.362308985759155,2.9900005974944666,6.28761364681028,-287.6427542972564,44.830490851402274,1634.3596777296063
2.3755266666412354,5.093857925804876,0.24620344832186009,3.7399596289383914,-123.30793214321135,-172.94459578037257,2296.1114051866525
2.3835933208465576,5.881519815660191,0.5768915626491729,4.328830360648039,-68.59481279850004,119.47440378189084,1612.232017073631
2.3919448852539062,5.877295582359918,2.8139068123054902,5.845077922413062,59.78022270202636,110.43442204475402,2208.431251263618
2.3996987342834473,2.293443440756974,-0.3973301232584795,1.3059185723663733,-455.7437678909301,110.31845290184019,2210.2652471446986
2.409374952316284,7.534014663423558,-1.8841971966962328,-0.9926317773058554,98.6953520298004,110.20809516906736,2220.3424045228953
2.4155750274658203,-2.2039779623526927,1.089536950179274,4.730447765465004,-89.01847524166105,251.0750648784637,1545.7040736770628
2.4237048625946045,2.2301429895110974,-3.7748253157301943,-0.3979606058406097,-498.14451815128314,102.99369219779966,2246.780563402175
2.4316132068634033,-3.3303350953283726,-4.316283757263647,0.1291858810784869,174.16507748603817,172.38813094139095,2059.596079154014
2.440365791320801,-4.252478919952067,1.0195533835628168,6.836196541521805,104.11129805088042,278.0631419515609,1789.2252452707287
2.4475791454315186,-6.443216748080024,-0.18435310701488325,2.9937204447290355,-76.9249511528015,133.3448744153976,2163.188321766853
2.456188917160034,-9.49758961720999,-0.09665297984056632,2.221127088586635,112.37690518856046,164.79589302062985,2147.3473109388347
2.4636096954345703,-6.95699700425796,3.8039536110246117,5.723016494512646,226.67197741031643,152.1122356319427,1774.433568139076
2.471839666366577,-11.26086025465364,3.5086986178130184,7.79673675539723,-198.44377869606015,143.83914661407468,1669.201858530044
2.479675054550171,-8.31203016977228,-0.5698301577293141,4.420565576347989,-108.02993279933926,-37.93687349319457,2140.3059264469143
2.4875845909118652,-7.6413227989021255,-0.4703400062691617,7.24115550402406,138.81693453788753,88.6041661262512,1775.8317444992063
2.4957332611083984,-9.191112034036477,1.1199262106379517,10.22749930254217,-18.83282766819,-4.529343218803405,1666.5570138835903
2.5036141872406006,-3.9691400475427354,0.5215982401963505,7.912997743542049,124.11878090858457,-159.56044735908506,2445.5245525407786
2.511817693710327,-3.8588055956699425,1.4082458954461121,6.290576914946293,37.61982882022857,-93.5768107461929,1975.5717589378353
2.5196850299835205,2.9925225278229886,4.933652301685582,8.143754368601718,178.77017474174494,-40.86228864669799,1787.8831830120084
2.5275917053222656,-1.5504827659746947,3.0538054348060477,4.465897274003154,-419.36593118190757,-11.268646798133847,1968.341456971168
2.5355467796325684,6.790801795608426,2.068108965903625,2.617763681004771,58.63549503326414,-126.9095222187042,2134.358766932487
2.544520139694214,2.992837769114053,3.8063494448367066,5.134524052352277,-159.37901176452635,100.04489616870877,1649.1756709718702
2.5517070293426514,3.945433902454638,-0.036189700214275984,-1.3224372160181859,-316.12907787799827,14.414777417182918,1921.3365446901319
2.5597002506256104,6.7612952107647315,-0.7510939000917591,-0.7053839128873165,28.720132336616512,-55.71195034980773,2273.5245441341394
2.567730665206909,4.674145670880773,0.6807950921842371,0.7207676878912944,-129.61141620159148,135.04139074802396,1796.6341771268842
2.5757155418395996,4.142774950661404,-3.7289261837511125,-3.8051515279306587,-498.17351043701166,285.94997890472405,1687.3500941610332
2.5837666988372803,0.6622589042696078,-4.077393906894498,-2.2708721643167116,120.22352703571316,71.90741525173186,2309.647061681747
2.591660737991333,2.599542734381207,-1.504205344446335,1.2279909252150756,-147.15361953735348,168.3366928195953,1905.819125180244
2.599827289581299,-4.017876351141402,-2.636867303243318,0.7475631976318299,-141.62170437335965,320.8230224609374,1807.7017483949658
2.6075868606567383,-2.336505401116469,-3.9168730414841377,-1.1634925570631514,20.28805336475372,6.5372928142547595,2188.1188817882535
2.6157619953155518,-1.46032375673007,1.2612173572933392,4.711091950193606,368.2927465486526,67.6034636735916,2209.979065227508
2.6236557960510254,-3.8055298174799366,1.0701811349078754,6.178666256618173,-352.41713202476495,167.236856431961,1611.461383414268
2.6315741539001465,-0.6813625265081542,-3.7183340763713244,1.8163572708590188,87.6511616373062,-59.1798018169403,1901.0821597862239
2.639665126800537,-0.6655374136966852,-0.9176043500323565,9.354217878033571,119.87281390190121,-86.84685951709746,2222.470999436378
2.6476988792419434,4.735743819154899,0.8915023711321644,12.322592922960972,-3.390226960182189,24.429274048805233,1723.0564321231839
2.655646800994873,1.5275331999851538,-2.1561873826272198,7.459365525699338,13.773206191062924,-16.12438704013824,1814.0809864902492
2.6635830402374268,7.695670397481753,-2.3666424685422958,3.0187506032396065,21.74982570648193,-133.25976802825926,2211.642848334312
2.671504020690918,6.15609498017791,2.9910093696258753,9.180141637107411,414.5681755113601,129.51695746421814,1994.6505534172054
2.679772138595581,7.827819546696252,1.4294301102056879,4.855535509759644,-563.0965905332564,159.86813968181607,1514.946064224243
2.6875834465026855,6.938208623310479,-1.4572974403358447,-0.48729998772846533,190.7486649227142,-17.90133358478546,2250.357837367057
2.6956863403320312,7.743334880690799,3.164644272744544,6.3932194793170956,168.6471908473968,166.9955657958984,1819.8626094055173
2.703601598739624,5.4570158931118975,3.4028405922733502,4.956034433351205,-228.84078742980952,111.72037020206449,1804.5210140800473
2.711733818054199,2.710129379286852,-0.08915023711321643,-0.40029339139449166,-130.88520630359645,154.52607722759242,2090.572933602333
2.719628095626831,4.467158239167414,2.7337094278585226,1.7584789698194625,308.1767744731903,154.65888060092922,2209.305696010589
2.727545976638794,-0.1151891677551955,5.618230289362599,6.356525393037116,-246.29975484848018,257.37200229167934,1900.8726671409604
2.7357981204986572,-2.9571524549654815,-0.3301206800033955,-2.1556829965615156,-254.68039589405055,203.5772837400436,2095.079831180572
2.743567705154419,-1.512464666272241,2.3885832624004277,3.0852665156543466,403.1910414505004,129.9004038238525,2371.2191946887965
2.7517383098602295,-5.562936966909779,6.0352945174417565,8.805130597256342,-132.84919985294337,200.20295577526088,1800.4471303176877
2.7595741748809814,-4.771996567627387,3.3211930978874844,5.7760400796698,-53.79939472675322,91.02174866199492,2115.534356379508
2.7675228118896484,-7.477838665355754,1.0256060163512672,1.3965189194184895,-59.830725393295275,118.47276707172391,2159.614788742065
2.7761104106903076,-3.686116416424469,5.638342683732555,9.859927957160238,362.47651993751515,-11.474398503303526,2062.500919137001
2.7836132049560547,-6.75082919990137,0.62102534339829,6.166056604975569,-679.1115599632261,196.5555391836166,1504.7875413990018
2.791759967803955,-4.2153434958645954,-1.0675331080629284,3.973679522134073,318.2342919158935,-45.16998116493224,2132.2105320835108
2.7998483180999756,-3.2855077837389124,2.0388545740927815,10.669593689131897,-46.97311429023741,-82.02946391105651,1798.7964405012126
2.807854175567627,-1.3706060852929365,0.15604443907723528,6.917276601583754,-263.48937458038324,83.95043664932248,1666.0968782520292
2.815819263458252,-0.7392408275477106,0.8581498425374744,6.552227186530343,131.65958090305324,-121.09516607761381,1858.9096068716044
2.823591947555542,4.929932454451014,5.314526829550462,9.150824197038354,236.26748875141138,-159.3518899488449,2148.889513492584
2.8316638469696045,3.5938137664006016,6.542769947798389,7.562638572652271,-274.2922743368148,196.64719221591946,1583.8925253915784
2.8396077156066895,3.666067070312727,3.1050636687332367,1.711255824417907,-148.84920063495633,-66.93944680690764,1902.044516625404
2.8491458892822266,6.88947231971181,6.236544557657731,5.4415060215914925,209.23826133728025,-61.61421858310698,2279.1901979064937
2.8555760383605957,5.109872183390985,6.193545645556448,6.311256743640164,-440.4872789525985,274.2483182907104,1763.8972103643414
2.863571882247925,4.22190051471875,-1.1818396002031415,-2.8221661341313964,-377.6591253089904,12.284312033653256,2096.4293753194806
2.87233829498291,4.650565622309102,1.12572665039355,0.09709431764805751,398.78421401977533,-69.90881800651549,2315.3800523757927
2.8798024654388428,5.703660679241248,4.054129099613892,4.7048501726305165,-268.99884410381316,207.17139193534848,2002.1791953563688
2.8876733779907227,1.8217163728071255,-3.886735974058312,-3.3112314730898262,-531.8775102138518,235.43325911045068,1850.4934268951413
2.895533561706543,0.0463404697865729,-3.0060779033387885,-1.589194396517492,376.5910869121551,78.09773587226866,2144.899800882339
2.903808832168579,1.5178868164785615,2.507113987840914,8.881229844919464,-146.59715469837187,223.98598242282864,2115.7747117805475
2.911522150039673,-5.36761346296583,-3.695132317348931,1.6846494594520107,-527.7568647003172,289.2204957818985,1662.9554238080975
2.9196856021881104,-3.097876167296952,-7.153707569882595,0.05932841097845592,122.93383813381192,74.91793679237364,2005.671362934112
2.927489995956421,-4.2444087429007995,1.5036379101224178,10.622433591988557,401.2513640117644,-9.120411949157713,1968.8923104000087
2.9356353282928467,-2.2684132822464034,-0.2080592521029804,10.129207067988068,-469.1475562477111,135.35282401084896,1702.0295430898661
2.9435384273529053,-3.987424042424512,-6.805176798480997,1.5022508484417314,-104.46201118469237,101.3710594320297,1476.7407782793043
2.9516444206237793,0.2239474131726625,-1.5100057842019332,8.503066392157741,445.20834535121907,-194.10428818702692,2244.6351342582698
2.95961594581604,1.5670644578847202,3.8035122732171205,16.41436183272804,-287.09283610343925,72.3282710123062,2083.233209137916
2.967548131942749,1.5296768407643968,-7.201056811800577,1.8180595738307703,-628.9399418926238,255.05542513847345,1695.3491593170163
2.975661277770996,3.955458575510509,-4.940713706605441,1.250751346429977,539.3182400608061,-260.4526664590835,2303.7475991535184
2.983596086502075,3.58523920328363,3.193709519780749,11.935539665791215,36.93149584293365,-7.27145230770111,2065.461873221397
2.9916443824768066,8.69252640808788,-6.227780849766119,-0.8762446926446125,-935.9205507707594,205.6179665613174,1962.306385364532
2.9998879432678223,-0.7205785431166553,-7.634702731789758,-5.715135462236018,422.4718466949462,164.0093603658676,1914.7141454887387
3.0078723430633545,6.666344533895916,0.5898164555828428,6.012344951452216,178.61305525779719,74.00421217441558,2117.2112327766413
3.015667676925659,0.4732402261469608,-2.383665498259812,0.3698410826776009,-648.8492250728606,308.62755775451654,1968.928784565925
3.0236523151397705,-3.503339515864911,-6.99785227558,-6.161454082126017,215.90181087970728,193.92378782749174,1580.552801122665
3.0317940711975098,3.31860811930075,0.7170478406567259,2.3134297386105027,567.7091696691512,-53.21393760204314,2341.8191464900965
3.0397207736968994,-7.7495136099956765,2.9589178061954455,4.672758609200087,-450.77860515117635,214.05846264839167,1848.6800061845777
3.0474839210510254,1.0039804637841998,-2.871659016828621,-3.3843674526169347,-31.869068660736076,127.07692928791042,1856.8595717000958
3.0556652545928955,-6.851895557816848,1.499161483789293,3.3952748012877874,549.5066904067992,33.48515478134154,2095.4801117706293
3.0637831687927246,-1.674372593363288,4.711974625808588,8.28145176453896,-287.1442740297317,149.74141484737393,1841.3150303745265
3.0715250968933105,-2.304287741169614,-2.596012031921278,-0.15257678487551896,-230.91794441699975,-114.9057806921005,2046.619693202972
3.079555034637451,-2.4905322959308887,-0.6139008902202182,2.212111187662172,440.150594344139,-114.05845776081084,1817.9743698930738
3.087578296661377,5.979055471115738,5.186034479312318,9.025105970161583,81.63666520118711,-72.66214991569517,2109.546046524047
3.0956950187683105,1.0119245443190408,-2.769520838523521,-0.36744524886550595,-644.1421871995925,-47.08160155296324,2038.8160921669
3.1036343574523926,8.155859634178618,-3.9784711897582627,-3.9764536454954458,284.687411623001,-72.94272042274473,1751.3650610494608
3.111823797225952,4.475984995317238,2.988802680588419,7.0958292688430396,184.14029424667356,-27.853169469833368,2230.7534408044808
3.119845390319824,8.461895879544638,-2.7598744550169276,-0.16657349819881034,-869.7835356140134,54.56815791606902,1990.434513931274
3.127744436264038,5.24820006191036,-5.325497226479528,-5.12708435788314,403.8195193862914,25.72083361625671,2116.7539028501506
3.135655641555786,7.866405080722623,2.7867330130156764,4.405055704827586,308.2001553487777,57.23451296806334,1871.0003252553936
3.1437416076660156,5.873827928158202,1.6943588912168164,1.472870360114462,-364.3853346204757,104.7538045120239,2025.7228018379205
3.1515581607818604,3.7059135695033585,-3.559011127867012,-3.9712836883219778,-117.99299150466916,77.44868276596067,1668.8838786220547
3.1597933769226074,5.341448435807423,3.2591536118058686,3.4358778795769753,586.4325748395919,152.86135888576504,2032.4508825969692
3.167625904083252,-0.36883231054619253,6.053830705356385,8.209387605401474,-382.80665887832635,312.26936293601983,1808.8249656581875
3.175610303878784,0.5279661142758659,-0.944967294096809,-2.2274319144079375,-132.53963706016538,141.82277990341183,1973.4375526142117
3.1836178302764893,-4.6291292145166745,2.5400882268863256,2.0836188374240288,627.7381648874282,107.58476092815397,2066.769331784248
3.19250750541687,-4.343457556553461,6.990475629369075,8.553504998728162,-117.37199544906613,163.51929721355435,1820.9231659221646
3.199836492538452,-3.824381246685631,0.7671712059360803,2.322508687793178,-323.3331932640075,43.58101686000823,1996.2900204133982
3.2077267169952393,-8.351120089864354,1.1386515433272197,0.45773035462655687,251.16110650062555,3.090951752662658,1961.6825836038586
3.2156405448913574,-1.2648741562696948,7.083787051524352,9.517323722030667,187.49685274600978,34.75520394325256,2110.7150903034208
3.223745107650757,-8.708855906965054,1.6475770836227521,2.9799759244385964,-554.2586195611952,66.24456718444823,2214.7852380132667
3.2316501140594482,-1.2769163735883824,0.5569052647956442,0.49675722646041887,330.8150734519958,-152.9670404434204,2036.0244156217568
3.2396631240844727,-0.8877194756393829,7.784820634594969,10.590783366365617,299.61563306808466,-162.73931120395656,2211.0134351634974
3.247704029083252,1.7431582430736974,7.068277180003947,6.6889788585943935,-319.79519917011254,1.4346505260467526,1781.691927156448
3.255591630935669,6.460618067346819,0.9479936104910341,0.010466010863362045,-257.27941402435295,-120.7809271097183,1992.1366416740414
3.2635631561279297,4.711407191484671,6.838214085784622,7.054532659713507,449.9593392705916,-141.73580304622647,1818.3699743080135
3.271608352661133,11.167296639465512,7.42670652794499,9.585037551351453,-645.2410883522032,131.5136842393875,1738.0258039093012
3.2796435356140137,7.483071670787434,-4.068125812937184,-2.6369933997597435,-575.4285995531081,31.282676301002496,1976.8371319246287
3.2876665592193604,10.081479536520806,-1.035378496374286,1.050699223120051,493.7320793104171,8.127192354202268,1565.3879652166363
3.2956531047821045,9.607545779533503,4.051670217543584,7.540697778794139,-271.91397167205804,140.81179084300993,2136.1385191822046
3.303593158721924,7.096838040974448,-4.100469569400465,-2.7358530686377662,-593.4047519397734,304.4049716234207,1810.4653678894038
3.311640501022339,6.995204248735051,-4.347177403788029,-5.858065863604946,269.0166135692596,142.37830950736995,1977.8574733352657
3.3197052478790283,3.115592727854812,4.668471327641601,3.6001816404801166,233.80127399444575,121.24667415142056,2064.0468626308434
3.3276712894439697,4.795135278391567,1.6260776275721112,-0.3931058899582069,-702.0968311357497,323.017083826065,1953.675101332664
3.3355772495269775,-0.20206966757274303,-3.6242660751174918,-8.11966993396434,107.49030219078061,138.2071613025665,2212.7585837173456
3.343488931655884,3.8639755528434105,4.98282994309174,3.501195875085669,500.8894329452514,97.20645787239073,2030.634656181335
3.351822853088379,-0.33049896955267366,4.291821033076993,3.1404337415907433,-548.1365710973738,165.94810256958004,2238.683298568725
3.3596441745758057,2.7334572348256714,-4.2850748694482,-6.2069118762976085,-290.2333553123473,296.9296380805969,1719.2883702135082
3.3676984310150146,1.1306444145341659,0.06733553977151002,4.318679591075742,592.7762740039824,-126.08558016300198,2125.0933935546873
3.3756444454193115,3.580069246110162,2.3416753582899372,8.718943628279137,-517.4861136722564,229.15970257282254,1991.9383718490594
3.383697271347046,2.734339910440653,-8.051956104643553,-1.382080868287707,-377.0203597879409,256.87352202415457,1796.2460545921322
3.391871452331543,2.1679143586548424,-5.4167911043719865,2.5913464608135137,457.9097722053527,-50.80664265155791,1980.0898793363567
3.4000470638275146,5.554047162501741,1.3262201115109673,10.400377626562285,31.050738015174858,255.80641886234278,1843.4454957580563
3.4076669216156006,3.745633972177564,-5.034277321793568,4.54294224553947,-517.2457582712173,93.09329423904417,2088.2441983938215
3.41575288772583,2.0724592957203236,-8.108258199227784,-1.8655979605233906,104.47978065013882,176.54618585586542,1614.6028378581998
3.4235727787017822,1.8848907275365763,0.2314501559000124,7.540319489244861,381.1204301309585,350.9955747890471,2033.0166997861859
3.431591510772705,0.5783416725880723,-1.5450606157683748,7.192419200425392,-709.28785323143,149.12135402679442,2027.4763675069805
3.4395968914031982,-2.178884755583909,-6.344104886169149,-2.4864341591470414,209.60393823146816,219.4734734344482,1844.2095827722544
3.4478540420532227,-1.2315846759332176,0.6387419039561497,6.987764554265915,416.6013764524459,183.74001365661616,2106.4887632322307
3.4556140899658203,-4.85503112369394,3.1868372596355288,7.162471277774206,-253.60300514698025,115.30325557708737,2027.0358718109126
3.4635767936706543,-1.3728758225886055,-2.6839643521284473,-1.5140408727275667,-207.7147634840011,133.04653444290156,2016.3545526075359
3.47156023979187,-7.3731785567221335,-0.18321823836704879,2.782130490166126,363.60628384590143,140.96984556198117,2005.5750337266916
3.4798755645751953,-2.8655433357819566,3.1377226664875826,8.02043197553704,-249.31775826930993,205.56933434009548,2135.6447150897975
3.4875996112823486,-8.67146828984473,-6.303564856138175,-2.488199510377006,-588.6967788314819,203.2733323574066,2046.039847488403
3.4958183765411377,-7.463337565966759,-2.8388108742996345,0.7787090371890639,698.4933705902098,1.3336451435089107,2023.4763673114774
3.5035924911499023,-5.304249963461738,3.34237731264706,7.210955388340022,-10.889876613616941,40.864159116744986,2150.9965980005263
3.5118050575256348,-8.030078359043634,-1.9824263829921247,-0.4668723520674454,-422.3811288976668,186.2221274089813,1796.6117314863202
3.5196304321289062,-3.8981477087948697,-2.391798723569292,-2.369479640161882,338.21091201782224,-129.9827045059204,1950.1773223447797
3.5277493000030518,-4.428635753399257,5.800187562565387,8.167649658464454,338.3801895570754,6.119242758750914,1854.8899667406079
3.535858154296875,-0.916532529642735,0.6724727221001178,5.365406773928373,-734.5579035663603,52.804304661750784,1797.2383389520642
3.543628454208374,-0.12691614378281801,-2.8692001347583123,-2.9141535428641987,243.4725393724441,-225.95091120719903,1788.8633093166347
3.5517594814300537,1.4607020462793483,4.840656120821372,9.535544668654229,515.7044909524916,-19.405191502571103,2156.740811514854
3.55957293510437,3.302719958231068,4.632975158267668,7.4250042249732395,-467.7596674728393,184.39841911315912,1875.1499630546566
3.5676839351654053,1.0130594129668753,-3.155817516594721,-4.0442305230744475,-187.97382260799404,-5.714285993576048,1996.9100812339777
3.575908899307251,2.464745558321761,3.418161319019115,2.5906529299731704,621.3467687368392,47.62590833663939,2071.491333417892
3.5835444927215576,1.4190901958587523,8.46069796263859,10.17264731789684,-324.57612061023707,229.96306945800777,2068.46210717678
3.59183669090271,-1.4711050088844975,-3.017741831108198,-6.393913010157439,-650.202510151863,287.2546317625045,1839.8242657470698
3.600001573562622,-2.97650827023688,-0.06582238157439743,-3.2522813516606486,653.9406445407866,35.93827624797821,2132.6351287841794
3.608253240585327,-5.500140901729606,5.632100906169465,6.538797907530968,-252.8445295429229,119.06944701671597,1945.1738149690623
3.616046190261841,-4.28860557190813,-3.3532846613179137,-4.105954767864999,-696.8417455387114,218.77859381198877,1883.2360050678249
3.623631000518799,-9.241109302799407,-4.34698825901339,-5.7894063104109605,351.5295939874648,75.08908480167386,1847.6194496679302
3.6316592693328857,-4.827352938338422,4.98301908786638,5.834674959807913,228.63784142971033,43.290158767700184,2030.1679739046094
3.639653444290161,-9.348669631310825,-0.6435335715803395,1.2186597829995478,-846.8871117687223,162.76175684452053,2034.9863047456736
3.648909568786621,-6.64200790622569,-4.962276210914294,-6.502292966025628,217.6319956731796,-40.881928582191456,1723.4193033123013
3.6556222438812256,-2.16640120045773,3.896193212790266,6.052380595417485,481.65445421695694,-173.98551236152645,2245.697561244964
3.6635472774505615,-4.074367590500273,2.753947918744904,4.287722896293147,-552.5499451732634,99.68763638973233,1722.7833434963222
3.6717634201049805,1.8403156089799677,-5.379655680284516,-6.068836190811085,-231.4678626108169,-145.40098910331722,1758.9554285001752
3.6797001361846924,1.767999256809629,-1.4562256199462233,-0.34884601269266374,499.0516961240767,-160.60042870521542,1976.0066432237622
3.687743902206421,7.241785986606191,5.07286285581994,10.04926187657395,-261.1475460815429,104.77344444751738,1919.8093058967586
3.695664882659912,4.673767381331495,-7.878762539332375,-5.757756084788023,-688.7201645946501,204.86510236740108,1804.245119748115
3.7037160396575928,5.573213832998501,-6.071736410688884,-4.6426845900324745,613.1812317466735,-16.30208169460296,2007.006878547668
3.7115132808685303,3.2998827866114815,2.3415492617735114,7.463778903774249,82.19125957012174,130.25111695766444,2065.561008133888
3.719698429107666,5.9399025027654515,-4.584112758152575,-0.5603098707391474,-636.3282985782622,235.4828265666961,2002.514009494781
3.7276337146759033,-1.4988462424982278,-6.686456928265873,-7.240272828409077,217.91724235534662,99.3949078273773,1831.950522084236
3.7359607219696045,2.8377390539100134,2.11199055361989,4.043726137008743,537.3318008708952,162.13047320365902,2271.9711187601088
3.7436423301696777,-2.3128623042865852,1.9510913986602516,2.9435340311914677,-657.3318067359924,287.51836803913113,2087.547448301315
3.752380132675171,-3.554849942824952,-2.5344138836471535,-5.599631053189759,224.33388985157006,200.92869815349573,1932.1300920963283
3.7596449851989746,-3.6760286951103853,2.456675381270494,0.9419409777025839,459.09939115524287,150.9076529216766,2082.9077473497387
3.7678236961364746,-8.493167815618298,4.342764025713118,3.354419529965748,-292.2665562534332,187.66425981521604,1888.4490050888057
3.7756848335266113,-2.652188029989083,-3.248939793975358,-5.029926991976869,-345.11575219631186,100.14683678627011,1824.6790697765348
3.7835447788238525,-9.121002370903593,0.8439639844395441,1.3070534410142078,631.5623408985138,-22.36333988189697,1802.9058631944652
3.79172682762146,-2.08948232543784,2.896436982306339,6.733680073667427,-459.6979415702819,51.95698173046111,1940.2572844505305
3.7998921871185303,-5.2890553332324,-5.189439085255822,-3.802440452827499,-271.956992483139,-17.28688417434692,1922.451344838142
3.8077149391174316,-0.06569628505797138,-1.0154552467789701,1.1919273215172257,461.19618807792654,-78.82721919059752,1732.894169335365
3.8156938552856445,1.8292821637926886,3.5175884222210545,6.564710741656523,-126.15852849483485,-119.6315232658386,2015.1331356668468
3.823598861694336,4.540042025661671,-4.0062754716302065,-1.9928923938554868,-540.5518150568007,-35.53612518787383,1957.123312864303
3.831758499145508,6.493087920326526,-2.0407460218391726,-1.8292191155344757,411.8625405883788,-59.59785187244414,1797.973433680534
3.839705228805542,7.792260329064106,3.7006805640716776,6.261637764426514,-34.449382090568534,-34.55599888324737,1969.939773626327
3.847660779953003,8.276912289947624,-2.4155679169156024,-1.0784404567337815,-624.7566356325149,124.88754409790036,2302.9086933374397
3.8555402755737305,6.315985363006141,-3.6948801243160796,-3.9617634013318113,321.7741564798354,145.5440800619125,1791.2042025804515
3.8637804985046387,8.174206677318608,3.4834162662695953,5.966508867731347,313.0624422359466,36.65373104095458,2317.372102975845
3.871774673461914,2.3621029939509572,0.4421574348479398,-0.023958338120949257,-556.7500856637954,258.1005503749847,2057.9145265817638
3.879551410675049,3.15808725389039,-5.992863039664392,-5.058424804689158,-19.173253216743465,255.0928345394134,1859.3613253879544
3.887727737426758,-2.9996469810010598,0.26568536010968463,3.678487577180693,364.6415890169143,249.44869117259975,2001.4048207569117
3.895695209503174,-4.991278409692286,0.10989311406530144,5.1249407171038985,-652.8660594987867,487.1985274362563,1930.1735804271693
3.903862237930298,-11.016422157561745,-8.685528051426235,-4.86316434900342,-144.06360301971432,297.58336736202233,1989.3814392948145
3.9116525650024414,-13.787203961249528,-3.0576513785570425,2.1196193928636657,569.2279913473128,71.16951481819152,1923.316437234878
3.919757127761841,-15.167393381790845,2.9550718624444516,7.406972423124315,-5.066168122291565,192.6518681955337,2092.007584128379
3.9277405738830566,-15.24525798068393,-0.4361048020594895,0.8183663916050561,-352.33202563762654,11.495908908843992,1986.4962392473215
3.935676097869873,-14.297516563225745,-2.737366226834878,-2.6777225745653572,251.09189910888668,-32.845454025268545,1989.0840345573422
3.9438986778259277,-13.71722039463307,5.9975286107721555,9.673494257624325,413.82746937274925,57.3233602952957,1687.221966962814
3.951570510864258,-9.33435767669647,-0.7174261302060043,4.362498130533794,-936.6322646236418,-70.31658047676085,2033.835030431747
3.959796190261841,-10.220437897622313,-6.10918707606742,-2.7129035026482247,250.38486143112178,-217.5515654611587,1753.987460055351
3.967555046081543,-3.307952963662749,2.58605040712362,10.514368877411433,529.7928713464736,-151.4734701108932,1994.929253454208
3.975708246231079,-0.7737282247902347,1.0119875925772541,6.911539210086369,-516.3572849988936,-146.2427006244659,2148.929728598594
3.98356556892395,3.472319772824103,-4.257270587576256,-2.43574335954377,17.75356645107269,-128.6191318416595,1830.7524860191343
3.991931438446045,7.19569770985247,2.1483693986088053,4.818652278705026,552.0093793296813,-117.57587668418881,2064.336785488128
3.999847173690796,6.500590663053877,5.815634385827579,7.943828341808216,-419.7942688226699,129.9827045059204,2038.753431420326
4.007882118225098,9.033617485020342,-5.212199506470723,-5.447999992187436,-532.3105240297317,150.52140085697172,1807.9645494365689
4.01765251159668,4.613997632545548,-0.1752741578322077,-1.504583633995613,738.0135969781874,27.55202379226684,2004.1553469610212
4.023728370666504,6.3192638724332175,4.801566200729296,6.399398208621973,-420.5312340211868,207.30326007366176,1987.795280694961
4.031731367111206,2.523317390201661,-4.547544768389021,-5.98617992429381,-493.16532688617696,273.43092288017266,2139.398748474121
4.03987717628479,-0.8590325181524568,-3.499430523855704,-5.429842093822083,369.933148779869,348.25627140522,1586.2960794019696
4.0476696491241455,-1.9117492855353244,4.118123081700111,3.864858228458393,163.18728878021238,136.56862954139706,2156.7828970909113
4.055766344070435,-5.716144234367428,-1.0609760892087738,-1.9607377821668444,-653.5571981811522,344.1636829423904,1831.2995985078808
4.063780069351196,-11.119379963223613,-4.631020662263065,-8.428858592241014,201.2167505407333,104.28057559013365,1954.9432800245281
4.071669816970825,-7.2064159137486845,3.24313935421976,3.1995099595363468,509.3832374286651,77.78536737442016,2109.12706123352
4.079715251922607,-9.60325849797502,3.7322677414364027,3.1058202478317924,-429.7629389381408,215.93828504562373,2276.7772915458677
4.087793827056885,-9.206117519491178,-3.086023094752903,-6.853787005563238,-318.31191642284386,165.25135247707362,1748.3582804489133
4.0956408977508545,-9.571040838028162,0.36397759466378954,2.146351854345988,604.1992345809936,-121.19897716522215,2116.334917559623
4.10365891456604,-5.243786683835449,4.2132629033435665,6.036177193056739,-382.3642927122115,92.67898512363432,1930.5673143720624
4.111582517623901,-4.978605709791468,-5.1041347918936,-3.903380714226551,-436.015920305252,-43.685763182640066,1903.943043723106
4.119748592376709,-1.6453703945852964,-1.578980578686982,-0.3804962383156019,601.5225919437407,-123.23217810630796,2034.8301204967495
4.1275880336761475,0.950074203012064,5.555875561989918,6.131443111216619,27.130232796669,45.7685315799713,1876.1759158754346
4.135605812072754,4.516083687540722,-4.608134144531737,-3.900417446090539,-743.2929986858367,-58.563481936454764,1982.2287618350979
4.143860578536987,5.140009250816811,-4.133380760187664,-7.828323932761957,482.0014264106749,-136.45546610355376,1553.471200547218
4.1518235206604,7.759538283051547,3.375918986016389,4.936867762854447,75.25555663585662,186.7916855382919,1927.906570730209
4.1595964431762695,6.162273709482788,-3.579564860044458,-4.065414737834023,-839.0114976358411,151.97849702358243,1731.581099362373
4.167758941650391,4.525919215821953,-4.740220245488024,-10.561970312362265,473.97617467403404,33.73112159252166,2053.296336035728
4.1759192943573,4.931634757422764,4.130732733342716,-1.9061379905543652,338.23429289340964,290.39141003131857,2006.538325800895
4.1847333908081055,0.8227797696799677,3.891023255616798,-5.031314053657557,-479.64931032657614,261.3448806715011,2108.8371383762355
4.191774368286133,-2.675768078560753,-1.296902671441911,-14.487670109996227,26.25578804969787,251.5782213211059,2016.9858362483972
4.2012176513671875,-3.9438576959993124,5.934732545591983,-6.085480930979324,593.2523086309432,361.05589793682094,1942.959178433418
4.2079267501831055,-8.338069100414257,7.133279934221576,-4.269501949669583,-436.52562339305865,124.51719102859495,2164.212404117584
4.218539714813232,-9.782882985623923,1.3995452358127147,-15.891061289559937,-26.76642637252807,204.90812317848201,2046.1502052211756
4.223672389984131,-7.594162701758783,4.467725673491332,-7.994329996636849,568.2600230979918,-26.052842049598688,2279.669038238525
4.231614351272583,-8.488691389285172,8.941188738480047,-3.235762708008836,-52.77905331611632,16.122516570091246,1883.2378755378718
4.239872932434082,-3.541168470792726,-0.04514255288052543,-13.234018543688451,-487.7091657590865,6.925415349006651,2005.8780498743051
4.247756004333496,-5.457583327435815,2.910875033437122,-10.21369173399352,657.832157473564,-201.9742909097671,1919.9355626249308
4.255835771560669,3.3126185347705124,7.127668639240615,-2.3739560664950066,-138.0182438278198,51.797056541442856,1899.7475794076915
4.263644218444824,0.14564147647208625,2.362229090467384,-9.281586284572168,-257.6413499784469,-7.814823856353757,1617.7788959980007
4.271707773208618,6.352931642318972,1.2757184566823347,-13.255328854964455,91.9859759712219,-227.32944763183588,1984.4518154859538
4.279877662658691,8.669513793840126,7.97850488382538,-5.868216633177242,515.7390946483611,83.61655774593352,1752.3040370130536
4.2876574993133545,6.199913519635962,4.322336390052097,-7.3352235052778925,-860.1693195724486,213.0175460672378,1672.6472643566128
4.295779705047607,7.968669355544148,-0.27684490181338994,-16.37312827185672,134.33715877532956,32.542437877655026,1857.3992023086544
4.303731918334961,4.213199855085353,5.866766523238342,-6.117698590926179,192.9118635320663,175.6146917724609,2057.539497337341
4.3124566078186035,2.1892877181890578,3.8248225844931225,-9.73112036563103,-666.6186905193327,279.76246398925775,1806.0678928089137
4.319828987121582,-2.383224160452321,-3.1778844069692798,-20.52372120653654,-232.5012973117828,-29.63385695457458,2385.809796290397
4.327638864517212,-1.9352662858487826,0.5821876163390669,-13.106724110356355,378.74680364131916,132.54524847030635,2264.567798314094
4.335756540298462,-6.045571383530479,1.9925771525644216,-8.347841580437278,-539.2565145492553,230.44284502506252,2060.7763457536694
4.34370231628418,-8.196147471176742,-7.258052437225151,-19.530585043164983,-390.9918358039855,50.83844064235686,2028.8343287611003
4.351732492446899,-8.085308633238244,-5.263457740397913,-12.01983518702203,436.27123946666705,-43.061961421966544,2138.16891441822
4.359671115875244,-7.8722055204782215,-1.4944959126815291,-4.757936806045882,-184.19640834808345,16.480711584091182,1927.21449681282
4.3676207065582275,-7.743460977207225,-4.416089150014865,-7.147024454512016,-86.45967221736906,-62.310968675613395,1759.5726836156841
4.375803232192993,-4.265908198951441,-5.872188673444662,-9.745936706311092,104.63222395896909,-310.4755821609496,2130.117476100921
4.3836047649383545,-1.8447920353130927,0.6814886230245804,-1.6394438583132724,454.9581704711913,-186.96096307754513,1747.1901719045634
4.391871929168701,2.4622236279932403,1.0343697242428775,0.43868978064622344,-310.16040795803065,-101.52817891597746,1645.770480251312
4.399971961975098,2.1773715973867964,-3.3025938617146418,-6.788532058312758,-3.6979192829132073,-195.37714305400843,1954.016462116241
4.407703161239624,8.266761520375328,0.9464804522939216,1.677525006273939,419.0367284536361,0.6368950510025023,1719.036791992187
4.415694952011108,4.934408880784138,1.1610336749928434,3.0915082932174363,-363.6913902330398,-130.9254214096069,1950.2970324277874
4.423656702041626,8.13152300650839,-3.429320860722821,-5.070277877233206,-111.14426542758939,6.661679072380065,1829.3271878433225
4.431724786758423,10.0669153888736,-3.699230454132778,-4.490990480771939,127.09282828330993,-25.932196731567377,2162.1520813608167
4.439793348312378,5.705110789180147,-1.2120397158871805,-0.9380950339515894,-33.39350174903869,63.11059462070463,1784.418137249946
4.4477622509002686,8.33561021834395,-6.372980988430715,-8.15800327495786,-509.7947408390044,258.10242084503165,1865.2505003309245
4.4556708335876465,1.7198303875348782,-6.095820845326259,-6.78733414140671,389.22985301971426,65.47580399513244,2286.0978437900535
4.46364951133728,3.358517666749594,-0.3714803373911395,0.44518375124216497,46.82441192150115,244.98294393539425,1693.4356684589382
4.471632242202759,-1.0518971400260984,-0.49335262051691553,-4.354869291290019,-128.10942875385282,-27.855975174903865,2521.0045655822746
4.4795823097229,-4.625787656831384,-1.5196521677085257,-7.081328169454044,41.5581035041809,158.51953077793118,2108.7698014545435
4.4877846240997314,1.4732486496637403,2.6909627087900923,-2.151521811519456,295.3593784761428,112.2964749765396,2157.0382162523265
4.495824337005615,-6.695598925706761,3.6615275957213895,0.9700605008655927,-238.21558330535882,-101.51508562564848,2017.4543889951701
4.503720045089722,1.2954525615030112,-2.9707078304812815,-6.499897132213532,-360.05332599163046,96.56675711631772,2041.636760997772
4.511636734008789,-3.072719912269955,-2.3165821515211538,-1.7618835757629656,311.16204466819755,-25.9172329711914,1940.1151287269588
4.519808769226074,0.7835007048132537,0.11008225883994054,2.8654172392655313,-150.64391664505,-23.60720246315002,1620.7894175386425
4.527690887451172,2.311601339122325,-5.212956085569279,-5.677117362533565,-343.7475033569335,-61.361705126762374,2051.5203247261043
4.535794496536255,0.8732183762503873,-4.862218625130224,-4.668282182866962,297.2943797397613,-10.658873562812802,1667.361316003799
4.5436317920684814,7.293359461824444,-0.5985801634744532,-0.6385527591815108,110.90297479152677,-51.66986457824706,1744.6884182167048
4.551839113235474,3.1899896725461803,-0.12950112236955202,-1.2766011322973174,-151.91957721710202,-39.425767650604236,1756.1899385356899
4.562097787857056,7.9790723181492975,-2.3491781010172876,-5.782786243298593,-60.6434446287155,-72.15338206291197,2072.623903031349
4.567627668380737,6.206155297199052,-0.30956694782594957,-3.0121305361272386,242.29133753776543,79.44821524620055,1850.0987577152248
4.57571268081665,6.991232208467633,4.625850705089598,3.5424924842151997,51.81576124191283,61.697454500198354,2235.225734686851
4.583584785461426,5.494907896297924,-0.973402058550883,-6.980892294120695,-469.26726633071894,43.6605118370056,2354.216621961593
4.593238830566406,5.629326782808093,-2.8344605444829365,-6.582427302214381,284.42274011135095,182.3857933425903,1982.9030662870405
4.599963188171387,3.0087259301837355,0.32230269598498057,-0.7463022324675693,-172.360073890686,51.122752089500416,1899.9009579515453
4.607730865478516,2.1823524097856253,-0.949948106495638,-0.9136953580231489,-99.75871425151823,138.18190995693203,2340.6688074111935
4.615770578384399,0.03322643207826383,-5.2816786870214765,-5.086544327852166,-202.8047796106338,265.4215701389312,1765.020427627563
4.6236488819122314,-2.7916507771562924,-0.6625110973024598,-1.8290299707598365,530.7449406003951,122.97218276977537,2202.3325836753843
4.6317925453186035,-4.542059569924488,3.178830130842475,0.6563323679975837,-138.4119777727127,225.34955508708947,2066.884365692138
4.6396119594573975,-5.127777888723484,1.0216970243420596,-2.860499475124915,-18.24456483840942,139.95418032646177,2049.739637241363
4.647619724273682,-7.98619677132737,-1.9006527920898322,-6.299403671096115,-153.9013402318954,219.1414650011062,1614.0865881252284
4.655551910400391,-5.744137661014009,2.0003951365828367,0.1462719590542165,271.1274390172958,-71.80266892910002,1684.407844777107
4.663690805435181,-5.671947405360097,-1.4490381185099386,-0.9754196028136998,-686.2651726579664,-11.46411091804504,2082.655233893394
4.671701669692993,-2.8156091152772413,-5.584940809026124,-8.685906340975514,157.1540876436233,150.28946257114407,1432.1356790685652
4.679564952850342,-1.8714614485372019,-0.09274398783135883,-0.14948742022308076,322.6289612913131,-168.7715771055221,2165.157926726341
4.687649965286255,0.8212035632246423,1.284356068057519,-3.411604300164961,-248.50784473896022,34.88707208156585,2169.1205175209043
4.6958653926849365,5.069143008585371,-1.1735172301190222,-8.171999988281152,-4.305822048187255,146.4447113895416,1873.4235192012782
4.703609228134155,3.235762708008836,-0.14280430485250015,-6.370459058102194,50.73837049484252,-41.00818531036376,1819.5708160781855
4.71176815032959,7.188951546223676,3.4179721742444764,-1.938733940050499,167.3771416854858,63.684828925132734,2099.013429689407
4.719835519790649,7.629911064165568,-1.5945534984655991,-4.19750083879031,-565.8527281475067,206.20716462612148,1981.82567553997
4.727692604064941,4.830253158216221,-2.2361325740413354,-6.263087874365414,464.46296401500695,130.22680084705348,1690.3260120058058
4.7357025146484375,7.42462593542396,3.031864640947915,1.7811763427761511,104.45639977455137,139.2200208330154,2265.7265545082087
4.743838787078857,2.5468343905151185,-1.2448248101579529,-2.4527663892612868,-487.25183583259576,258.16508159160605,2189.806981005668
4.751797437667847,5.426122246587514,-4.871045381280048,-5.537528518849929,221.16531359195704,321.6030084705352,1638.4270148468015
4.759926795959473,-2.100137481075841,0.1750219647993556,1.4567930542701406,128.5704996204376,114.29039604663846,2049.9940211677545
4.767534971237183,3.1755516214153974,-1.2104635094318545,1.5799893508183902,-332.5817324113845,180.2169833230972,2076.9100851440426
4.775630712509155,-2.476661679124023,-3.5399075056284657,-2.664923778148114,170.91045960426325,214.71967381000513,1967.3164393854136
4.783795595169067,-1.429304013689262,3.438588954680135,3.0955433817430698,441.3158971834182,261.4019300079345,1893.7031554508205
4.791980266571045,-3.3694880636786606,5.111826679395588,2.070315654941081,-214.53730298042294,250.72902791976927,2331.9290361165995
4.800023794174194,-5.436146919643386,0.78967943411813,-4.60466649033002,-239.02830254077907,39.77648078441619,1731.1415389013287
4.8078789710998535,-1.5958775118880726,1.5000441594042753,-2.000584281357476,161.40379559040065,127.71943574905393,1689.6750884294506
4.815767288208008,-6.009444731574417,3.7148664221696084,2.9289698835442595,-222.85060710430142,65.41220801353454,2151.6755786275858
4.823849201202393,0.46056752624614294,-3.1368399908726006,-1.677588054532152,-368.62475498199456,91.65864371299742,1805.9435065507885
4.8317131996154785,-0.9178565430652086,-3.229899219995024,-1.8263188956566767,220.22914333343502,-117.88450424194333,2040.8390055227276
4.83985447883606,2.3109708565401945,4.101604438048299,5.198581082696711,399.62873124599446,-33.21206615447998,1942.011785354614
4.847614526748657,6.122427210292155,2.4284928098492724,3.1769386830960844,-540.364768052101,107.77180793285368,2253.0447675895684
4.855742692947388,3.494323614940449,-0.8699398668233101,-5.118131505216891,186.39140494823454,-33.34486952781677,1710.52334757328
4.8637213706970215,8.163992859488097,4.864803603716959,4.673830429589708,274.7542804384231,26.52607097148895,1929.3206460857386
4.871817111968994,5.781588326392547,2.3553568303221644,3.0866535773350336,-621.1784264326094,93.27192412853239,2312.8315369367597
4.879700183868408,5.543139813830889,-1.8770096952599482,-2.01193296783582,147.09844067096705,154.21370872974393,1618.7253538417813
4.887702465057373,5.65013270801839,0.9877770614234526,2.2037888175780536,113.5094748020172,23.113398370742793,2302.125901622772
4.895708084106445,-0.23649401655705435,2.147865012543101,3.1989425252124293,-117.80220355987547,305.21207944869985,2126.8291897583003
4.903800010681152,3.9413988139290046,-2.981426034377496,-1.5755129244852655,-410.9581683206557,219.0002445125579,1868.6369863510129
4.911626100540161,-3.7905873802834504,-1.6895041753344135,-0.6995204248735053,323.9270675039291,-15.525836625099178,1839.9860614061351
4.919755220413208,-2.290921510428453,1.4990353872728668,4.9190881540383735,-151.26491270065304,239.7718143844604,2017.2000050687786
4.927609443664551,-3.9613851117825334,-3.852185528557575,-1.6498468209184214,-385.6479028797149,149.79659371376033,2022.7150860023496
4.93562912940979,-8.180448454881697,-0.636472166660481,0.9554963532183842,560.9483556842803,26.098668565750117,1765.3795578765864
4.943634748458862,-4.862849107712356,5.326001612545233,5.788712779570619,-33.514147067070006,119.19196280479429,2213.3758388328547
4.952595472335815,-9.499418016698167,1.841135236336737,0.8385418342332238,-252.86791041851038,221.2017877578735,1976.4798721456523
4.9596779346466064,-6.480982654749626,1.281581944696146,-0.7927057505123553,187.85317728996273,-65.09422810554503,1667.00873239994
4.967696905136108,-6.9038473225843795,6.172235334280444,6.674225566172544,278.7355759334564,-69.83212873458861,2080.6500900030132
4.975663661956787,-4.6228243886953715,3.217667857901698,4.56463084636475,-456.8866250896453,-72.61819386959074,1949.9996276903148
4.983792781829834,-0.28264534156898824,-1.666806802377725,-3.211615225113248,39.21253406524657,-193.65069920063013,1862.9395345878597
4.991816759109497,1.055995276809945,3.2426980164122687,4.081239850645493,397.8648779916762,-137.37199642658229,1810.6093940830226
5.000456094741821,5.8841678425051365,5.293405663049099,6.663570410534544,-256.23943267822256,-83.07505666732787,2303.7251535129544
5.007880449295044,5.659968236299622,-1.4340956813134518,-4.063649386604059,-305.73300535678857,73.63572957515716,1633.026967821121
5.0159220695495605,8.070177051267118,1.0590215932041702,-2.7067878216015617,395.31449208259573,-17.8115510225296,1698.0922036409374
5.024348020553589,5.588723704518904,7.711117220743943,5.452917756328049,-12.868833923339842,-50.47837515830992,2251.0405589342113
5.031762361526489,8.715602070593848,2.369164398870816,-2.59897530005729,-512.6275677251815,180.8492021989822,1804.6528822183604
5.039808034896851,2.8859079231847633,1.7441670152051059,-4.619798072301148,342.85154820442193,210.4007584714889,1942.811411299705
5.047739505767822,2.551626058139308,8.072257643788149,1.5239394492670117,79.52209881305693,204.36288115978238,2099.2575260305402
5.0577661991119385,-0.31341289157694413,3.1143317626905516,-2.5744495276124235,-609.2822369337081,247.77649095058436,2305.9397900485988
5.063624382019043,-3.25064209694711,-3.292443092142345,-8.122065767776437,-153.1391236877441,287.7250549793243,1484.9811340713497
5.071673154830933,-3.355995736421073,0.26158722332583806,-1.2494903812657165,171.44634927272793,-188.37410319805142,2344.416294150352
5.079747438430786,-3.9355983741734066,-1.7171193124317183,-1.2066175656808602,-645.8349625921248,213.3411373853683,2173.9556825923914
5.087754011154175,-2.3332899399476053,-7.398334811749129,-5.952953492215547,-15.562310791015623,84.57610888004301,1780.996112298965
5.0958027839660645,-3.098632746395508,-1.3863681498461924,0.5181305859946341,370.7084586143493,-195.036717505455,1999.414640626907
5.10365104675293,-0.2500493920728546,0.8119354692673277,2.539331647787769,-426.13890322208397,246.88895291328424,2133.163536572456
5.111822605133057,-0.047349241917981295,-5.413197353653846,-4.770987795495978,-246.1604048299789,0.8716390419006346,1759.6072873115536
5.11969518661499,1.3373796532146724,-3.0524814213835736,-0.9996301339675011,303.850377254486,-125.07739680767058,1684.1918054866787
5.1276774406433105,2.5496715621347046,-0.06033718310986431,4.026703107291226,-290.21278014183036,28.75286556243896,1977.8191286993024
5.135737895965576,4.3708205006179135,-7.132145065573741,-1.6339586598487392,-372.46950616359703,128.34978415489192,1943.9739084339137
5.143857002258301,1.8961763657567077,-6.007238042536962,-1.0122397856101062,359.8466390514373,21.601123337745662,1662.732837872505
5.151709794998169,5.955160181253003,0.8242298796188674,5.051363399769298,205.53660111427303,72.5190589570999,2248.894194555282
5.159609794616699,2.3288135136144805,-3.746075309985055,-0.9638817715607164,-591.413636574745,202.681328587532,2197.1972081613535
5.167625427246094,4.2143977719914,-5.659463850233918,-5.806618484903116,335.76246672630305,110.09680220127103,1675.8382862567898
5.176109313964844,0.8307238502148089,-0.4238734399661628,2.73635745470347,95.84662614822385,238.57471355438227,2051.972978477477
5.1836607456207275,0.08246712174263585,-2.9229802990140223,0.747941487181108,-356.82208898544303,219.70634695529932,2065.6564021062845
5.19182276725769,-1.1972864234653326,-7.66143519327208,-3.4756613305093937,-58.97311487674712,102.86743546962735,1903.1200369024273
5.200002431869507,-4.083572636199374,-1.923791502854012,1.6754444137529094,482.590624475479,226.71032204627986,2030.8404078865046
5.207744121551514,-6.134343331094417,1.1788132838089163,5.027846399455839,-149.4486862850189,334.531697435379,2064.0169351100917
5.215704441070557,-6.364784714863022,-3.4909190089969457,-2.649540003144135,-165.01754372119902,87.44353946208952,2092.2329757690427
5.223654270172119,-7.3294230655222945,0.29910093696258755,-1.9521632190498732,562.6916337680815,10.254852032661436,1630.729095368385
5.2317187786102295,-6.023252300123069,6.99785227558,6.74458742233828,55.123687520027154,20.463877549171443,2346.264318556785
5.239793300628662,-6.208866372302213,1.542538685439854,-1.4064805442161472,-326.19968861103047,122.78233006000517,1842.1847989463802
5.247670412063599,-3.576223302359167,1.761253093180835,-1.0438900112330443,436.7715902042388,-61.114803080558765,1842.7796084213253
5.2556352615356445,-1.7378621893838035,7.156544741502183,5.008553632442656,124.22539770126339,-187.90742092132564,2101.339359192848
5.26372504234314,1.8753073922881964,2.486686352179894,0.939734288665128,-464.88943118572223,81.51414941310881,1925.5488432359691
5.271843194961548,3.1565110474350644,-2.761324564955828,-5.172731296829371,-114.47276687622069,-61.427171578407275,1636.8792008829114
5.279647350311279,5.928301623254254,1.0085199383755377,2.3173387306197104,295.28830061435696,-187.83447258949278,1852.1478576517102
5.287957668304443,6.208929420560424,0.8361460004211291,2.5577417391859716,-429.78070840358725,91.27613258838652,2104.1347766780846
5.295657396316528,6.616914699456907,-2.681757663090991,-1.6476401318809657,0.1449614286422729,291.8017444467544,1593.1953081703182
5.305373430252075,3.495332387071857,0.2907155186202553,-0.19727799994855322,159.24340268611905,-10.01543186664581,2154.7076105737683
5.311678171157837,2.0277580806472892,5.124310234521767,4.513309564179348,-65.09329287052152,230.1276708221435,2147.0349424409865
5.319746494293213,1.6210337669150692,-1.3090709852770246,-2.1590876025050187,-634.2202788352965,291.4921816539764,2001.7695624160763
5.3276190757751465,-4.1539975406233225,-2.3370097871821733,-2.595444597597361,283.58570476531975,-16.529343805313108,1816.9399999570844
5.335845947265625,-0.538558221655654,1.540458092918824,6.006040125630913,-120.91840665817257,144.74258364677425,2395.5633623504636
5.343632221221924,-6.9061170598800485,-3.0875362529500157,1.4391395419704938,-391.1985227441787,245.3196285438537,2073.1635336399077
5.35313868522644,-6.254135021699165,-2.8859709714429767,4.15103427248731,383.5941267681121,22.172551937103265,2053.710645151138
5.359676122665405,-7.434209270672341,0.6340132845901729,4.184638994114852,-59.504328370094285,210.2099705266952,2312.083348917961
5.3677287101745605,-11.682274812549496,0.8621218828048951,6.167695859689107,-30.019173784255976,281.04654167652126,1875.75506011486
5.375772953033447,-8.55262232311318,-4.428257463849978,0.5939776406249024,-437.5328715133666,-72.11877836704252,1731.1377979612346
5.383580207824707,-12.204629631844405,-1.0501948370543466,4.189430661739042,454.41012274742116,-25.06897480487823,1857.7770372581476
5.392068386077881,-8.282712729703222,-1.1552332352372454,6.4137101632363285,-604.9025313186645,145.82839150905605,1904.1787229490276
5.3999857902526855,-8.182718192177365,-7.6983184243266995,-3.530513315154725,11.783026061058042,-216.43208913803096,1841.7386918401714
5.407746076583862,-4.980623254054285,-1.0988680923948013,3.8712261025379084,595.3968025398253,-108.42273150920866,1836.6136039113994
5.415778398513794,-2.1265547012670982,4.3667854120922796,5.348005454661578,-83.10591942310332,-48.834231986999505,2139.0106259393688
5.423714637756348,1.2491751399746513,0.582439809371919,-1.9498934817542042,-127.82324683666226,-70.44938385009763,1785.6610645961757
5.4320151805877686,3.9398226074736797,1.1943231553293203,-3.8040166592828246,313.16718855857846,-206.99743822097776,1711.5137614631649
5.43968653678894,6.0790500086415955,6.69452710531714,3.639145464055766,-30.829087314605708,-113.94435908794401,2092.940948681831
5.447643995285034,9.16192069048385,-0.6417051720921618,-1.6878649206208751,-578.3053824853895,49.75917942523955,1837.8827178382871
5.455671787261963,7.788351337054899,-1.5356033770364212,-4.330974001427282,331.8737594985961,-1.20645318031311,1783.2668629360196
5.463821887969971,10.574390819230233,4.184071559790936,3.370433787551856,197.99393064975735,16.07575481891632,2199.3117745494837
5.471675872802734,8.542723746573737,-0.600408562962631,-2.18474824359772,-621.1054781007765,127.43044812679288,2122.3952405118935
5.479596853256226,8.461202348704294,-3.125049966586765,-5.458718196083648,219.81670468807215,212.0608006381988,1594.911464438438
5.48776650428772,5.332747776174027,2.9625115569135883,2.8183832386386145,223.07786921501156,67.95137110233306,2295.7850081634515
5.4959001541137695,3.418161319019115,1.0231471342809593,1.9488216613645828,-434.24271470069874,298.15853690147395,1989.5217245483395
5.5036420822143555,-0.32684217057631826,-1.1891531981558523,-2.263054180298296,184.88848226547236,206.90672042369837,1965.2991374397272
5.5117247104644775,-3.3187342158171758,4.753208186679906,4.887311831899009,404.9866926956176,215.43138766288752,2130.283947935104
5.51979398727417,-5.561865146520157,5.780138216453647,4.312122572221587,-426.92075970172874,382.39889640808093,2235.4773129081723
5.5276710987091064,-7.322613853635288,-1.2999289878361364,-3.591922318654211,-261.9677471971511,113.00070694923399,1912.518213653564
5.535736560821533,-8.876438177295274,0.10478620515004647,1.2736378641613049,265.41502349376674,-84.42647127628325,1790.589753170013
5.543744802474976,-5.695905743481046,2.609630455695291,5.5524079077882025,-320.7856130599975,82.81880227088926,2173.0148361587517
5.553611755371094,-6.558784205384496,-4.970661629256626,-2.537503248299591,-447.85506046771997,135.89526032447813,1789.11862847805
5.5597083568573,-3.669723869289083,-2.9506584843695403,-1.4786707998700601,405.7255283641814,-193.7414169979095,1811.4277247285838
5.567660570144653,0.06588542983261045,5.253811356891319,6.789793023477019,202.1024181079864,2.9534722042083734,2075.0770244979853
5.575667142868042,2.2406090003744596,-1.2006279811506226,-1.8452333731205837,-798.2876237726209,74.25766086578366,1861.4515756654735
5.58370304107666,4.878737268782038,-3.3193016501410932,-6.8565611289246124,329.82559479713433,-234.57938953399653,1711.4417483663556
5.59186863899231,6.9067475424621785,4.268556225796388,6.887139534157929,244.81927780628197,-7.367781515121458,1861.9145170021054
5.600071907043457,10.856405678217088,1.0529689604157197,4.068567150744675,-584.7734679079055,-8.926818299293517,2046.822639203071
5.607892990112305,8.34979607644188,-5.333819596563647,-3.2084628122025958,33.55903834819793,61.27753397464751,1706.4111191749569
5.615732669830322,10.966803178348094,1.0436378182001922,4.940965899638292,515.2490314960478,140.0617323541641,2176.7679343080517
5.623939275741577,7.714710971462086,3.157015433500769,8.870385544506822,-401.3233771085739,312.4825965213775,2259.4024952793116
5.631717920303345,6.2685730728299465,-5.850941410426872,-2.2092740160425866,-318.9432000637054,225.29250575065606,1759.1761439657207
5.639673709869385,3.416017678239872,-2.2989916874797203,0.768936557166045,523.3079516935347,50.96563260555266,2140.4116080045696
5.647644758224487,-0.6361569253694157,3.141757755013216,9.364999130187998,-170.6373709774017,330.88989225387564,2186.70667690277
5.65580677986145,1.1587639376971746,-0.7285856719097096,2.622050962563257,-148.37223077297207,216.20669749736783,1949.9079746580119
5.663697242736816,-8.294376657472633,0.7901207719256212,2.2510119629796086,427.7082275915145,55.6642533636093,2030.3877541351314
5.671895980834961,-1.6760118480768265,6.473542960280488,5.289307526265253,140.08791893482206,213.81810724735257,2047.1939275074003
5.67963433265686,-7.078427949576245,4.310231124475198,2.6835860625791685,-267.3977217435836,130.20154950141904,2031.7457153892512
5.687870025634766,-5.313202816127988,-0.07225330391212592,-2.8710285342464905,-153.50854152202604,-45.879824547767626,1596.8745227527613
5.695702075958252,-2.930041703933881,2.059849644077719,2.5118426072068902,281.7236518335342,-96.99883569717404,2239.494147334098
5.703848361968994,-3.2732133733873727,0.26108283726013387,2.450244458932765,-477.3776244544982,127.98504249572751,1839.3650653505322
5.71169638633728,-0.8864585104751225,-3.107711695578184,-3.2550554750220213,121.30652919292447,-126.2679509925842,1729.1859624671933
5.7198004722595215,1.3397124387685544,3.636560485469032,3.801179487663238,567.9888049411772,-171.33225059986108,2135.957083587646
5.727651596069336,3.6325884452016113,7.824982375076666,4.7332849370845915,-236.43489582061764,78.16694326400756,2007.4109000778196
5.735692262649536,4.118249178216538,2.7260175403565343,-3.8719196333782513,-257.36919658660884,59.707274370193474,1602.3559352254863
5.743563175201416,5.408342637771442,6.256656952027686,0.17905705332498914,335.1536287260055,-131.10405129909515,1845.5619326162334
5.75182032585144,5.049471952022907,10.300067847745364,5.8781782579749,-244.9530164146423,127.0965692234039,2342.5972620296475
5.759692192077637,4.1408204546568,1.1491806024487952,-2.6257708097978254,-556.3451288986205,311.99720954418177,1574.191332492828
5.767872095108032,1.3034596902960656,1.6268342066706674,-2.055310169486381,334.69255785942073,30.27168724060058,2081.1775625562664
5.775614976882935,-0.39323198647463287,6.4390555630379644,2.575584396260258,-165.7844364404678,249.9209848594665,2094.6430764245983
5.783892393112183,-0.8563844913075098,-0.33730818143968033,-1.6832623977713244,-538.0809241247176,325.56934020519253,2088.2975067901607
5.7919440269470215,-8.121120043903241,-5.6756042043364525,-7.227158790700769,-123.86252651214596,187.58850577831265,1451.4464118337628
5.800119161605835,-3.3613548383691807,-0.735142690763864,-0.8353263730643596,182.98434375762935,-93.36731810092924,2296.5313257122034
5.807987451553345,-6.936695465113365,-2.6792357327624696,0.9703757421566579,-649.476767773628,245.17092617511744,2230.095035347938
5.815967321395874,-5.725223183550102,-7.775930830186933,-7.723033341546206,69.34300081729887,151.97943225860593,1576.3498549270628
5.823892831802368,-4.922618856498302,-1.0889695158553567,0.390899200920751,414.97032657146445,-227.59411914348598,2391.3117839336387
5.8316330909729,-3.559956851740207,3.0301623379761633,3.398048924649161,-221.33833207130428,122.6289515161514,2156.971814565658
5.8396852016448975,0.1628536509642419,-2.0952827651934385,-3.5475363448722415,-219.17606869697568,-2.054711346626281,1683.9589319658276
5.84783411026001,0.05459979161247909,-2.1650141387770434,-3.8114563537519612,223.33786455154413,-131.13959022998804,1792.93064643383
5.8579630851745605,3.413432699653139,2.3552937820639506,3.562541830326941,-34.223990449905386,-31.696050181388845,2174.2371883344645
5.863569021224976,5.185719238021253,-4.232870911647816,-0.7340078221160294,-541.0690000247954,201.68156234741204,1812.4452604341504
5.871598720550537,-0.05983279704416011,-6.5007167595703015,-3.4887123199594896,316.36756280899044,49.578679065704335,1630.2755063819882
5.879739284515381,5.160815176027109,-1.7023660200098707,2.740329494970891,120.95113988399503,114.38485478401182,2248.890453615188
5.887628555297852,0.0505016548286325,-5.035412190441402,-0.5043230174459818,-412.62569236755365,245.83774874687188,1998.2222159719463
5.8959808349609375,3.4746525583779855,-7.126407674076356,-2.921467140816909,79.20505414009092,44.79682239055632,1537.17847120285
5.903617858886719,-1.7117602104836114,-1.5727388011238925,1.1995561607610012,320.88755367755886,171.57915264606473,2118.8226427221293
5.911939859390259,0.0432511051341347,-1.2597672473544395,3.0946607061280873,-428.94367305755605,241.47394212722773,2147.969242229461
5.920836448669434,-3.2735916629366506,-5.8728822042850055,-3.6445045660038726,-30.21931407928466,142.47276824474332,1791.6166412258144
5.927677869796753,-5.291388118786282,0.2506168263967718,1.0346849655339425,384.47885910034177,285.1671871900558,2043.0527068233487
5.935858726501465,-7.165623690684858,2.333037746914753,4.880250426979151,-202.26140806198114,222.37270200729364,2280.0609017133706
5.943708896636963,-6.938776057634396,-4.0265770107748,-2.929663414384603,-273.4664618110656,-11.387421646118163,1860.7763359785076
5.951940536499023,-8.650725412892646,-1.4330238609238308,-0.4869847464374001,474.3605562686919,90.10241263389585,1854.8684563350673
5.959730863571167,-5.7574408434969575,3.130661261567724,6.3938499618992255,-94.8029038619995,29.1101253414154,2288.3545659017554
5.96778416633606,-5.159995548670339,-3.0121305361272386,0.3004879986432741,-278.41385508537286,-17.09048481941223,1967.2996051549908
5.975906610488892,-3.1261848352345996,-3.2966673254426175,0.25648031441058305,388.29929417133326,-168.31331194400784,1791.5100244331356
5.983765125274658,0.8498905207115683,3.8251378257841875,7.444801378052129,199.76807148933406,-103.90461111068723,2104.3648444938653
5.991888999938965,3.2765549310726625,-0.1799397289399715,1.1378319159704504,-489.64416702270495,70.18471233844755,1901.999625344276
5.99990439414978,5.731843250662469,-2.1600333263782145,-2.4781117890629223,248.84359411239618,-158.1042864274978,1588.4480551910397
6.007840633392334,6.338115301638912,3.072341622720677,3.7404009667458826,80.08604553222655,-63.465983929634085,1831.0171575307843
6.015870809555054,6.704173488823732,-0.0494298344390111,0.0003152412910651217,-430.85061727046957,141.28595499992366,2024.4845506668087
6.023651361465454,5.986747358617728,-2.110288250648138,-1.6345260941726565,125.39631195068357,158.34744753360744,1784.3395775079723
6.0319602489471436,4.607314517174967,2.205680265324444,0.74819368021396,240.86697459697717,114.43722794532773,2227.778458194732
6.039770603179932,-0.017401319266794724,2.8992741539259246,0.6291585687077702,-263.9644739723205,313.21020936965937,2244.509812765121
6.047800302505493,1.004106560300626,-1.7825003561986248,-5.529710534831514,-106.45219131469725,120.44517773628233,1776.887624840736
6.055724859237671,-4.948090352816365,1.663906582499926,-1.753372060904207,334.35400278091424,-67.24713912963865,2201.015772762298
6.063775300979614,-3.3352528594689885,3.1901788173208194,2.1084598511599606,-313.457111415863,406.8496808624267,2056.398510608673
6.071863174438477,-7.362712545858771,-3.388213396367929,-3.427177219943578,-253.43092190265648,126.29600804328916,2041.9725103712078
6.07966947555542,-10.746827805442855,-0.7861487316582007,1.9097317412725077,460.9268403911589,11.499649848937986,2061.2523803806303
6.087804317474365,-7.464787675905658,3.869775992599009,5.538663387497763,-167.85411154747007,272.41338717460627,2142.9601234436027
6.095644235610962,-13.502036689352016,-0.026669413224109303,2.010735050929773,-188.91560427665706,35.75684065341949,2043.3585286760328
6.103949069976807,-8.411835562523496,-1.0870150198507529,0.919180556487682,1.6123451805114744,-86.20902923107145,1644.1899330615995
6.111928224563599,-9.707603365317572,3.011878343094387,8.840626766630274,118.43816337585447,-23.965397477149956,1833.0774802875517
6.119701147079468,-7.552550851338188,-0.559427195124165,7.741380384686195,-566.2763896131514,-32.56581875324249,1803.4482995080946
6.127649784088135,-2.7274676502954334,-5.600450680546527,0.838604882491437,36.44330316066741,-192.76035545825954,1688.6201433229442
6.13585352897644,-2.5405926129520293,1.8343890727079437,10.77677572809404,531.8167199373244,-168.67711836814877,1924.0842651891705
6.143670320510864,3.765746366547519,3.9982052945789395,9.106942609322092,-355.93174524307244,-67.61655696392057,2076.6837582683556
6.151609659194946,2.9129556259581517,-1.343621430777762,-1.607226198366417,-70.19125898361204,103.27519793987273,1597.806016836166
6.162149667739868,5.6324791957187434,3.1514671867780217,1.0513927539603942,315.89246341705314,-141.37293185710902,1836.8212260866162
6.16769814491272,5.851824086041856,8.301248917617851,6.865009595525157,-20.077625484466548,-6.745850224494933,2392.5631283950797
6.1758177280426025,5.979055471115738,1.7221631730887603,-1.1199892588961646,-522.2305609464645,237.20365900993343,1649.0204219579693
6.183710813522339,3.3366399211496747,2.6451896733274367,-3.5380791061402874,563.9121154737471,78.59902184486388,2127.5783130121226
6.191777229309082,1.9942794555361731,8.349985221216519,4.564126460299046,64.90437539577484,34.37643375873565,2110.983502755165
6.200032949447632,5.154888639755084,3.413937085718843,-2.7635312539932837,-558.865587286949,238.21651854038234,2118.924583339691
6.208028316497803,-1.9461736345196357,0.03190241865579033,-6.1415308325307025,129.18494903087614,110.64952610015867,1639.0788736581799
6.215848207473755,2.2438244615433236,3.7189645589534543,-1.1975386164981845,68.73977422714232,-53.84709171295165,2390.957329859733
6.223690748214722,-2.0923825453156395,1.2788708695929858,-1.9661599323731644,-532.8707298088073,312.7940297842025,2129.113968920707
6.231813907623291,-2.536620572684609,-1.825247075267055,-6.988016747298766,41.23077124595641,153.24480524539945,1780.3451887226101
6.23974609375,-3.916809993225925,2.7927225975459136,-1.819824925060735,237.5814939594268,14.867431168556209,2288.3040632104867
6.2476537227630615,-5.104576129701091,2.297100239733329,-2.0962915373248467,-527.2003998613357,316.8473383760452,2042.5373923254008
6.255671501159668,-3.2604145769701285,-3.358517666749594,-6.896785917664521,-187.682964515686,-100.38625695228575,1733.6171060085292
6.263729572296143,-2.2541643758902596,-0.8044957747981907,0.2005565093756305,190.232415189743,-247.02549722671503,1870.5355134487147
6.271785497665405,0.6166119653233781,-0.7714584874945659,-0.44196829007330074,-399.33880838870994,89.8171659517288,1843.4277262926098
6.279657363891602,4.618978444944377,-6.287865839843132,-3.1583394469232418,-121.97522223472593,37.29623750209807,1630.0220576906202
6.2877585887908936,2.499232955564286,-3.9088028644328707,-1.3919794448271519,342.95816499710077,-170.67478037834164,1764.2198664474483
6.295779228210449,8.650094930310516,2.826390367431669,6.403370248889392,88.70517150878904,162.99743607044218,2165.233680763244
6.303815126419067,5.927545044155698,-2.8380542952010783,-1.3151866663236882,-463.6979417657851,20.635960793495173,1910.3484683990475
6.311686277389526,9.33170964985152,-1.5346576531632259,-2.608054249239965,405.9864589357375,-105.86392848491666,1808.3152625703806
6.319677114486694,6.774472296731254,4.474850126669405,6.541130693084851,152.0607977056503,181.27473413467405,2273.46843003273
6.327810049057007,7.744721942371485,0.3707237582925832,2.761324564955828,-449.3514365053176,165.99392908573145,2054.020207943916
6.335694789886475,2.8048909113810274,-3.7173883524981286,-1.3825852543534114,76.89221792697904,237.465524816513,1920.946551685333
6.344023704528809,4.075943796955599,2.3602745944627794,5.423032881935076,383.36967036247245,231.24060050010675,2213.6564093399047
6.351669788360596,-1.2927414863998514,1.4844712396256585,4.69722133338674,-423.8082975435256,297.13632502079,2236.497654318809
6.359803915023804,-3.799414136433273,-5.544905165060852,-3.62401388208464,-132.4535954380035,300.69863522529596,1586.5626213836665
6.367689609527588,-5.930823553582776,-0.17313051705296487,1.3622837152088174,600.1141279983519,-1.9050737428665157,1988.3031133127208
6.3756420612335205,-6.46522059019637,5.772257184177019,9.884390681346892,-145.26912096500394,257.63667380332936,2279.1415656852714
6.383660554885864,-7.7012186442044985,1.379748082733825,1.6577909014532621,-73.20552146434783,102.67010087966918,1695.9533211421963
6.392168283462524,-9.17970029929992,3.0198224236292277,1.5797371577855384,325.5674697351455,-19.11339817523956,2306.215684380531
6.399940729141235,-9.112112566495558,10.446213710283152,6.3192638724332175,264.62194419383997,99.52584073066708,2165.4375619983666
6.407887697219849,-2.309583794859508,6.91885280803908,3.657933845003247,-510.1398425626754,-19.269582424163815,2037.9977615213393
6.415684461593628,-7.774795961539098,2.431897415792775,-2.875568008837828,68.78840644836424,-36.94365389823913,1685.606816077232
6.4239819049835205,0.7091037601218848,5.932273663521675,4.903136944710479,129.6544370126724,-100.49474421501158,1941.8995571517942
6.431817531585693,-0.03543312111571968,3.1105488671977697,4.35114944405545,-398.3119203329085,-52.235681767463674,2112.685630497932
6.439826011657715,2.2972263362497554,0.5563378304717269,-0.11462173343127827,29.044658889770503,32.89502148151397,1338.680448875427
6.447683334350586,4.911837604343875,2.6932324460857617,2.3767301898563793,24.844518399238584,-133.88824596405027,2061.864024085998
6.455887317657471,3.0567687029420596,3.571620779509616,3.1091618055170835,-197.3018567323684,82.21183474063872,2092.780088257789
6.465914964675903,8.90159443232227,-0.01677083668466448,-1.0027194986199393,-437.1101452827453,62.77110430717467,1527.5044001197812
6.471682548522949,5.217369463644191,0.09923795842730034,-0.5911404690053162,161.00445023536676,-115.04232500553128,1989.9734430646893
6.4796342849731445,7.3570382026195995,3.022911788281666,3.4715631937255473,-254.3315532302856,189.7273882770538,1942.1361716127392
6.487863779067993,4.262440544749724,-1.6523057029887294,-2.127311280365655,-338.78421108722677,278.1922043848037,1793.3084813833234
6.495831251144409,0.7432759160733441,0.7638926965090032,-0.885638883118353,317.66660425662985,164.79308731555935,1917.8097734165187
6.503868341445923,1.1993039677281496,3.839449780398544,0.9647644471756988,-141.89853394031522,124.68646856784818,2331.8327069091793
6.511840343475342,-1.4900194863484046,1.1561789591104406,-1.0834843173908235,-229.91069629669184,165.81623443126676,2014.3877533531183
6.519984483718872,-3.5268565161783694,-2.0077717827937605,-5.166552567524494,-136.1000767946243,83.54922082424163,1688.1141811752316
6.5278520584106445,-2.849529078195849,-0.8772534647760208,-1.31480837677441,-15.515549039840694,117.93220122814175,2348.2180245208733
6.535764217376709,-5.019650125888147,-4.4660864187777936,-0.5782155760716463,-456.21045016765584,242.23241773128504,1863.3688074636457
6.543839693069458,-2.913901349831347,-8.127298773208118,-4.560217468289839,19.8559747838974,-224.10756297588344,1986.1408499383922
6.551844120025635,-3.4231421314179444,-2.7605679858572714,1.309701467859155,379.4426184988021,-31.112463526725765,2250.20352358818
6.559660911560059,0.5316859615104345,-1.457045247302993,0.10453401211719436,-296.7238863754272,100.66308651924132,2097.790142278671
6.567867040634155,1.3445671546509572,-3.4206202010894238,-4.786749860049235,110.90391002655026,-244.50503883838647,1937.069068255424
6.575891971588135,3.608188769273171,2.2935064890151873,1.234989281876721,393.217695159912,-31.01613431930541,1925.101800894737
6.585137844085693,6.3413938110659895,4.453602863651614,2.54040346817739,-257.8302674531936,99.56979677677153,2149.985608940124
6.591904401779175,4.860579370416686,-1.5484021734536653,-3.393635546574249,-116.06079594612119,117.12976957798001,1546.5607489585873
6.600086212158203,5.597046074603025,0.9573878009647749,1.0570670971995664,289.6020716714858,-53.80126519680022,1985.7929425096509
6.6078550815582275,4.496917017043962,3.9617634013318113,5.460609643830039,-110.27730256080626,179.379947977066,2033.6498538970943
6.615813255310059,6.705056164438714,-3.8336493406429457,-1.1160802668869572,-558.2670368719099,43.21346949577331,1830.3559463691709
6.623822450637817,3.142262141078921,-5.370261489810774,-2.194457675362526,278.68413800716394,43.82043702602385,1599.92432416439
6.632835388183594,4.684233392194857,-0.4253235499050623,5.240003788342668,-119.68763736724851,245.30934095859521,2042.4663144636147
6.6397480964660645,2.3769823828892314,-5.261692389167948,1.5326401089004091,-408.7856173610686,150.6055720090866,1814.0145848035809
6.647768974304199,-1.367075382833007,-7.569321688022852,-2.727972036361138,94.7365021753311,323.000249595642,1622.9535513830183
6.655716419219971,-1.1740846644429395,-0.8449097083127394,2.6900169849168973,207.3406694746017,99.82885687828062,2151.8139934110636
6.663686990737915,-3.4053625226018718,0.266568035724667,3.946001336778555,-272.42554522991173,39.320086092948905,2207.525943760871
6.671751022338867,-2.6806227944431567,-2.050581550120404,-3.9789125275657544,-5.6768765926361064,166.36989356517788,1681.4599839830396
6.680077075958252,-1.9879115814566577,1.535225087487143,0.3114583955723403,364.4526715421676,-201.80501337051388,2294.313883471488
6.68774151802063,0.6114420081499101,5.2255026889536715,5.853274195980756,-23.273323559761042,30.604630908966058,2349.376780714988
6.695928335189819,1.3970863537424065,1.6197097534925957,1.0508883678946899,-135.56138142108915,193.00445179939265,1812.5528124618527
6.703754663467407,1.2597672473544395,0.15408994307263152,0.7377276693505981,79.33972798347472,-147.04419703960417,2265.209369540214
6.712016582489014,2.994603120344018,3.1837478949830915,4.654033276510818,158.98808352470394,21.267244434356684,2256.643551959991
6.719785928726196,4.650817815341954,-0.9675385705370718,2.0622454778898134,-460.9184232759475,211.06477533817286,1682.421405587196
6.727833986282349,2.7329528487599664,-4.716892389949204,-2.506168263967718,102.82441465854643,-125.45149081707,1705.9397607231137
6.735985279083252,3.9130901459913567,-0.5717216054757048,2.2456528610315014,208.6761850881576,-1.9985972452163694,2086.909618015289
6.743809223175049,6.32720795296806,-0.9950906593761635,3.4460916974074856,-339.4351346635818,247.90461814880365,1767.7531843662257
6.751779079437256,-0.32715741186738345,-1.929024508285693,0.6659157032459632,193.3102736520767,-36.888475031852714,1712.6135978507994
6.759710788726807,5.96991347367485,2.6454418663602888,3.9265194249907305,159.1358506584167,2.190320425033569,2328.3985239028925
6.767667055130005,1.2610282125187002,2.6663108398288,3.1950335332032225,-332.9193522548675,212.00188083171838,2051.40154987812
6.775874137878418,2.2717548399316936,-1.045907555495861,0.8370917242943243,-253.07927353382104,-2.0780922222137446,1657.831271114349
6.783725738525391,0.8217709975485593,0.5921492411367247,2.3288135136144805,184.08605061531063,50.03413852214812,2300.7744870138163
6.792003870010376,-1.4458226573410746,-0.43358287173096854,6.821380200841744,-578.981557407379,352.67619212627403,1980.8240388298032
6.7999491691589355,-1.6526839925380075,-6.773652669374485,-1.1810199728463724,-206.38392404556268,28.018706068992607,1891.6989467954631
6.807731866836548,-4.594326575983085,-1.7312421222714356,6.179359787458518,473.0297168302535,108.25438920497892,2030.6449437665935
6.815765619277954,-4.814869383212244,1.5973906700851852,6.927238226381411,-351.6352755451201,242.96844769477838,2116.0524765825267
6.823766708374023,-7.160516781769601,-4.163202586322424,-1.3953210025124423,-185.79378976821894,185.7535746622085,1746.7178782176968
6.83179235458374,-6.14707907925345,-2.4686545503309687,-0.4147314425252742,182.10241713047023,-119.0002396249771,1783.206072659492
6.839729309082031,-6.079176105158021,4.0284054102629785,8.154724765530784,110.22118845939634,-20.66962925434112,2106.527107868194
6.847762823104858,-2.266837075791078,-3.0794660758987487,1.0410528396134582,-688.826781387329,94.20341821193692,1779.5577208328243
6.855881690979004,-6.994132428345432,-5.79312615764553,-5.108422073452086,409.2691338682174,26.578444132804865,1920.5920976114269
6.863688230514526,-0.6393093382800671,2.77992380112867,4.840782217337797,355.44355256080615,-6.330605874061583,2133.063466424942
6.8718156814575195,-0.4884979046345127,2.072900633527815,1.6581691910025405,-280.218858680725,-15.273323168754574,2272.601467165947
6.879706144332886,-2.39217701311857,-4.432418648892038,-6.058244083431297,-196.76970800399775,121.76572958946225,1363.1115933942792
6.887845754623413,1.8067108873524258,-0.4551453760398228,-2.564109613265488,511.2733474111556,-119.14894199371335,2358.9274007749555
6.895790338516235,-0.5263899078205404,4.983523473932084,6.698940483392051,-159.58663393974302,134.41104234218597,2169.5684950971595
6.905292510986328,2.6240685068260734,-2.7185147976291844,-2.9545044281205346,-334.9908978319167,286.9431984996795,1588.9334421682356
6.911765813827515,-4.152673527200849,-0.20150223324882582,-1.7064641567937173,585.5974099636077,46.556934704780566,2085.184109396934
6.919669151306152,-1.4642327487392777,6.480289123909283,6.625300117799237,10.046294622421263,97.93968213081358,2001.2168385171885
6.927733659744263,-0.8316695740880042,2.0000798952917713,0.5616338841616209,-464.48353918552385,207.00679057121272,2011.4109002733228
6.935850381851196,-7.2180167932598795,-1.9085968726246734,-3.455801129172291,40.31237045288085,143.46131166458125,1388.406895074844
6.943750381469727,0.12357458609752772,3.039367383675265,2.6518097404398047,176.3703616714477,-23.203180932998652,2440.016018252372
6.95173716545105,-6.734310556249558,0.8433335018574137,2.2766095558140966,-521.3823027801513,276.19921854972836,1890.0089771080013
6.960127115249634,-2.427420989459651,-4.514444432827184,-4.499501995630696,-102.31377633571623,147.73533572196956,1541.5095445966717
6.967732906341553,-6.091092225960282,1.4798056685178949,1.995540420700434,498.08279263973225,-32.51625129699706,2371.4726433801643
6.975784063339233,-3.9062178858461367,3.148125629092732,3.0188766997560323,-537.3495703363418,258.4830614995956,1945.5376213932034
6.98375391960144,-3.5796279083026707,-2.599353589606568,-4.5427531007648305,-148.43115057945246,-45.21767815113067,1942.9853650140758
6.9918787479400635,-5.209425383109351,1.250246960364273,0.02906524703620423,368.4844697284698,0.7519289588928222,2000.5032541942592
7.000056505203247,-0.08429552123081357,4.657311785937896,5.970607004515193,-215.5090121698379,107.07412260532377,2279.935580220222
7.007872104644775,-0.9428236533175662,-2.42073787408907,-0.9244766101775762,-423.2396746492385,-24.407763643264765,1887.5885888671871
7.016007661819458,1.2346740405856562,-0.14709158641098583,0.31889809004147723,494.5485394859313,-86.63736687183378,1897.5581942176816
7.023699045181274,4.828298662211618,5.235149072460264,7.348274494727988,-117.52256828784941,24.038345808982847,2174.5542330074304
7.031898260116577,4.627426911544922,-2.9385532187926393,-1.454964654781963,-574.6196212577819,-23.09001749515533,1851.226651153564
7.039822816848755,7.354894561840356,-4.243841308576882,-3.675965646852172,356.96705041408535,-27.134908971786494,1798.4812662982936
7.047815799713135,4.590480632232091,1.8433419253741932,6.505067089387,28.079496345520013,218.91794383049006,2082.3840157365794
7.0557801723480225,5.9716788249048145,-4.418169742535895,0.24172702198873539,-555.1592508888243,181.0297025585174,1818.458821635246
7.065436840057373,0.8411268128199579,-5.830324629991215,-2.3990492732637896,370.218395462036,35.43792551040648,1828.9577700090404
7.071774005889893,3.4187918016012455,2.3522674656697258,5.914620151222029,266.86183207511897,237.5291207981109,2093.6152531337734
7.079761266708374,-2.7692055972324563,1.553256889336068,3.714740325653182,-337.2027286624908,232.57424564361568,2052.8605165147774
7.087758541107178,-2.4045975199865355,-2.267278413598569,-2.8276513325959294,-12.48725803375244,19.128361935615537,1794.4120587110515
7.095882177352905,-4.173101162861869,4.091327571959576,2.3644357795048396,512.0271468400954,138.5223355054855,2067.1714828443523
7.103777647018433,-4.1393072964596875,6.174568119834328,5.7773010448340605,-319.2574390316009,245.0100657510757,2082.7169594049446
7.111952781677246,-6.591632347913484,-0.6563954162557964,-3.521119124680984,-173.7563797807693,39.794250249862664,1757.047549052238
7.119699478149414,-7.049740992089318,2.665743405504883,2.4458310808578534,487.9149174642562,-82.58499351501462,2253.699432106018
7.127865791320801,-5.123490607164998,8.946043454362455,8.347211097855146,-47.01613510131835,69.41314344406128,2147.712052597999
7.135905504226685,-3.7017523844612987,2.8749375262556978,-0.26398305713793296,-318.8983087825775,21.39630686759948,1889.7957435226435
7.143896102905273,-6.291900928368765,0.8828017114987669,-4.147629666543807,177.63386418819425,-111.24807651519774,2037.1728842306131
7.151709794998169,-1.4499838423831342,8.58975774720065,5.904280236875091,373.1812200164794,-99.13958866596221,2091.650324349403
7.160887956619263,0.2979660683147531,5.628759348484175,4.569485562247153,-718.131435613632,125.51228109359738,1790.336304478645
7.168640375137329,-1.3750194633678483,0.5184458272856993,-4.335135186469342,119.00959197521207,-190.7570820379257,1603.5960568666453
7.1757354736328125,4.3604805862709775,5.1673721948812625,2.355419878580377,182.41852656841274,-239.40613749027247,2166.017407712936
7.183700323104858,6.2086772275275735,4.787128149598514,3.0253706703519736,-445.23827287197105,66.48305211544036,1987.3070880126947
7.192067623138428,5.406892527832542,-0.16379937483743726,-1.9916944769494394,-226.69348781585688,131.3593704605102,1359.2808707380293
7.1999831199646,9.329692105588704,-0.05983279704416011,-1.4729964566308877,5.2934302330017085,-245.66192456245417,2041.8069737720487
7.2079994678497314,4.936363376788742,1.978328246208278,1.7052031916294568,-211.75310831546778,207.76339570522305,2075.2098278713224
7.215764999389648,8.552559274854968,-1.2529580354674332,-2.5434928328298287,-320.4891435575484,296.83143840312954,1379.8326603794096
7.224053621292114,1.133796827444817,-0.859663000734587,-3.5955791176305656,251.76152738571162,-127.10031016349791,2386.8011454153057
7.231770277023315,4.138487669102919,3.567144353176492,-0.46050447798792987,-108.74351712226866,297.81624088287344,1940.4536838054653
7.239832639694214,2.2721331294809715,0.8762446926446125,-3.3173471541364896,-214.6242798376083,139.00678724765774,2153.9435235595697
7.247664928436279,-4.0177502546249775,-2.4870646417291717,-6.025458989160525,-159.73814201354978,68.4311466693878,1632.711793618202
7.2560436725616455,4.642054107450344,0.05087994437791066,-1.3728758225886055,188.1243954467773,55.75123022079467,2529.243986139297
7.263780832290649,-4.468293107815249,-1.8803512529452382,0.7451673638197347,-407.96728671550744,194.1893945741653,1924.7997199821468
7.271926403045654,1.0089612761830287,-5.770933170754545,-4.7607109294072565,28.841712889671317,73.46738727092742,1602.6449228477475
